"rt","stimulus","key_press","trial_type","trial_index","time_elapsed","internal_node_id","browser","scRes","window_resolution","focus","success","miniblock","nSteps","node","goalnode","choiceVar","total_reward","trBet"
"2122.900000035763","<p >Welcome to the experiment. Press any key to continue.</p>                <p style=""font-family:VideoGame;font-size:10%;"">.</p>","77","html-keyboard-response","0","2125","0.0-0.0","Mozilla/5.0 (Windows NT 10.0; Win64; x64) AppleWebKit/537.36 (KHTML, like Gecko) Chrome/91.0.4472.114 Safari/537.36 Edg/91.0.864.59","W1920,H1080","1920 x 1009","true","","","","","","","",""
"299.80000001192093","<p style=""width:50%; margin-left:auto;margin-right:auto"">Before the start of the experiment, we would like to provide you with some information regarding ourselves and your own privacy. Please read the statements and tick the box if you agree and wish to continue. It is always an option to terminate the experiment when one or more things cause you concern.</p>","77","html-keyboard-response","1","2425","0.0-1.0","Mozilla/5.0 (Windows NT 10.0; Win64; x64) AppleWebKit/537.36 (KHTML, like Gecko) Chrome/91.0.4472.114 Safari/537.36 Edg/91.0.864.59","W1920,H1080","1920 x 1009","true","","","","","","","",""
"358.80000001192093","<p style=""width:50%; margin-left:auto;margin-right:auto"">For the experiment it is important that we set your browser to fullscreen mode. The next page will contain a button you can press to enter fullscreen. If you leave fullscreen during the experiment at any time, this will be recorded and unfortunately we will not be able to complete your payment if this has occurred. Additionally, be aware that the experiment only works for 16:9 aspect ratio monitors. If you do not have a monitor with this aspect ratio, please quit the experiment, as we will ultimately not be able to complete your payment.</p><p>Press any key to continue.</p>","77","html-keyboard-response","2","2785","0.0-2.0","Mozilla/5.0 (Windows NT 10.0; Win64; x64) AppleWebKit/537.36 (KHTML, like Gecko) Chrome/91.0.4472.114 Safari/537.36 Edg/91.0.864.59","W1920,H1080","1920 x 1009","true","","","","","","","",""
"","","","fullscreen","3","4511","0.0-3.0","Mozilla/5.0 (Windows NT 10.0; Win64; x64) AppleWebKit/537.36 (KHTML, like Gecko) Chrome/91.0.4472.114 Safari/537.36 Edg/91.0.864.59","W1920,H1080","1920 x 1080","true","true","","","","","","",""
"11579.900000035763","img/Boot.png","38","image-keyboard-response","4","16102","0.0-4.0-0.0","Mozilla/5.0 (Windows NT 10.0; Win64; x64) AppleWebKit/537.36 (KHTML, like Gecko) Chrome/91.0.4472.114 Safari/537.36 Edg/91.0.864.59","W1920,H1080","1770 x 937","true","","","","","","","",""
"2133.5","img/Boot.png","40","image-keyboard-response","5","18239","0.0-5.0-0.0","Mozilla/5.0 (Windows NT 10.0; Win64; x64) AppleWebKit/537.36 (KHTML, like Gecko) Chrome/91.0.4472.114 Safari/537.36 Edg/91.0.864.59","W1920,H1080","1770 x 937","true","","0","0","4","11","0","0","0"
"975.3999999761581","img/Toiletpaper.png","40","image-keyboard-response","6","19217","0.0-5.0-0.1","Mozilla/5.0 (Windows NT 10.0; Win64; x64) AppleWebKit/537.36 (KHTML, like Gecko) Chrome/91.0.4472.114 Safari/537.36 Edg/91.0.864.59","W1920,H1080","1770 x 937","true","","0","1","2","11","0","0","0"
"965.8999999761581","img/Lightbulb.png","40","image-keyboard-response","7","20185","0.0-5.0-0.2","Mozilla/5.0 (Windows NT 10.0; Win64; x64) AppleWebKit/537.36 (KHTML, like Gecko) Chrome/91.0.4472.114 Safari/537.36 Edg/91.0.864.59","W1920,H1080","1770 x 937","true","","0","2","0","11","0","0","0"
"1040.0999999642372","img/Book.png","40","image-keyboard-response","8","21227","0.0-5.0-0.3","Mozilla/5.0 (Windows NT 10.0; Win64; x64) AppleWebKit/537.36 (KHTML, like Gecko) Chrome/91.0.4472.114 Safari/537.36 Edg/91.0.864.59","W1920,H1080","1770 x 937","true","","0","3","1","11","0","0","0"
"926.6000000238419","img/Toiletpaper.png","40","image-keyboard-response","9","22157","0.0-5.0-0.4","Mozilla/5.0 (Windows NT 10.0; Win64; x64) AppleWebKit/537.36 (KHTML, like Gecko) Chrome/91.0.4472.114 Safari/537.36 Edg/91.0.864.59","W1920,H1080","1770 x 937","true","","0","4","2","11","0","0","0"
"957.6000000238419","img/Balloon.png","40","image-keyboard-response","10","23117","0.0-5.0-0.5","Mozilla/5.0 (Windows NT 10.0; Win64; x64) AppleWebKit/537.36 (KHTML, like Gecko) Chrome/91.0.4472.114 Safari/537.36 Edg/91.0.864.59","W1920,H1080","1770 x 937","true","","0","5","3","11","0","0","0"
"957.3999999761581","img/Boot.png","40","image-keyboard-response","11","24077","0.0-5.0-0.6","Mozilla/5.0 (Windows NT 10.0; Win64; x64) AppleWebKit/537.36 (KHTML, like Gecko) Chrome/91.0.4472.114 Safari/537.36 Edg/91.0.864.59","W1920,H1080","1770 x 937","true","","0","6","4","11","0","0","0"
"987","img/Jar.png","40","image-keyboard-response","12","25067","0.0-5.0-0.7","Mozilla/5.0 (Windows NT 10.0; Win64; x64) AppleWebKit/537.36 (KHTML, like Gecko) Chrome/91.0.4472.114 Safari/537.36 Edg/91.0.864.59","W1920,H1080","1770 x 937","true","","0","7","5","11","0","0","0"
"1076.300000011921","img/Basket.png","40","image-keyboard-response","13","26145","0.0-5.0-0.8","Mozilla/5.0 (Windows NT 10.0; Win64; x64) AppleWebKit/537.36 (KHTML, like Gecko) Chrome/91.0.4472.114 Safari/537.36 Edg/91.0.864.59","W1920,H1080","1770 x 937","true","","0","8","6","11","0","0","0"
"970.1999999880791","img/Floppy.png","40","image-keyboard-response","14","27116","0.0-5.0-0.9","Mozilla/5.0 (Windows NT 10.0; Win64; x64) AppleWebKit/537.36 (KHTML, like Gecko) Chrome/91.0.4472.114 Safari/537.36 Edg/91.0.864.59","W1920,H1080","1770 x 937","true","","0","9","7","11","0","0","0"
"917.8999999761581","img/Jar.png","40","image-keyboard-response","15","28036","0.0-5.0-0.10","Mozilla/5.0 (Windows NT 10.0; Win64; x64) AppleWebKit/537.36 (KHTML, like Gecko) Chrome/91.0.4472.114 Safari/537.36 Edg/91.0.864.59","W1920,H1080","1770 x 937","true","","0","10","5","11","0","0","0"
"837.0999999642372","img/Floppy.png","40","image-keyboard-response","16","28877","0.0-5.0-0.11","Mozilla/5.0 (Windows NT 10.0; Win64; x64) AppleWebKit/537.36 (KHTML, like Gecko) Chrome/91.0.4472.114 Safari/537.36 Edg/91.0.864.59","W1920,H1080","1770 x 937","true","","0","11","7","11","0","0","0"
"888.3000000119209","img/Soapdispenser.png","40","image-keyboard-response","17","29767","0.0-5.0-0.12","Mozilla/5.0 (Windows NT 10.0; Win64; x64) AppleWebKit/537.36 (KHTML, like Gecko) Chrome/91.0.4472.114 Safari/537.36 Edg/91.0.864.59","W1920,H1080","1770 x 937","true","","0","12","9","11","0","0","0"
"947.1999999880791","img/Cap.png","40","image-keyboard-response","18","30717","0.0-5.0-0.13","Mozilla/5.0 (Windows NT 10.0; Win64; x64) AppleWebKit/537.36 (KHTML, like Gecko) Chrome/91.0.4472.114 Safari/537.36 Edg/91.0.864.59","W1920,H1080","1770 x 937","true","","0","13","8","11","0","0","0"
"898.0999999642372","img/Basket.png","40","image-keyboard-response","19","31617","0.0-5.0-0.14","Mozilla/5.0 (Windows NT 10.0; Win64; x64) AppleWebKit/537.36 (KHTML, like Gecko) Chrome/91.0.4472.114 Safari/537.36 Edg/91.0.864.59","W1920,H1080","1770 x 937","true","","0","14","6","11","0","0","0"
"917.6999999880791","img/Cap.png","40","image-keyboard-response","20","32537","0.0-5.0-0.15","Mozilla/5.0 (Windows NT 10.0; Win64; x64) AppleWebKit/537.36 (KHTML, like Gecko) Chrome/91.0.4472.114 Safari/537.36 Edg/91.0.864.59","W1920,H1080","1770 x 937","true","","0","15","8","11","0","0","0"
"846","img/Soapdispenser.png","40","image-keyboard-response","21","33385","0.0-5.0-0.16","Mozilla/5.0 (Windows NT 10.0; Win64; x64) AppleWebKit/537.36 (KHTML, like Gecko) Chrome/91.0.4472.114 Safari/537.36 Edg/91.0.864.59","W1920,H1080","1770 x 937","true","","0","16","9","11","0","0","0"
"870.3000000119209","img/Basket.png","40","image-keyboard-response","22","34256","0.0-5.0-0.17","Mozilla/5.0 (Windows NT 10.0; Win64; x64) AppleWebKit/537.36 (KHTML, like Gecko) Chrome/91.0.4472.114 Safari/537.36 Edg/91.0.864.59","W1920,H1080","1770 x 937","true","","0","17","6","11","0","0","0"
"868.5999999642372","img/Soapdispenser.png","40","image-keyboard-response","23","35127","0.0-5.0-0.18","Mozilla/5.0 (Windows NT 10.0; Win64; x64) AppleWebKit/537.36 (KHTML, like Gecko) Chrome/91.0.4472.114 Safari/537.36 Edg/91.0.864.59","W1920,H1080","1770 x 937","true","","0","18","9","11","0","0","0"
"765.1000000238419","img/Basket.png","40","image-keyboard-response","24","35895","0.0-5.0-0.19","Mozilla/5.0 (Windows NT 10.0; Win64; x64) AppleWebKit/537.36 (KHTML, like Gecko) Chrome/91.0.4472.114 Safari/537.36 Edg/91.0.864.59","W1920,H1080","1770 x 937","true","","0","19","6","11","0","0","0"
"850.5","img/Jar.png","40","image-keyboard-response","25","36747","0.0-5.0-0.20","Mozilla/5.0 (Windows NT 10.0; Win64; x64) AppleWebKit/537.36 (KHTML, like Gecko) Chrome/91.0.4472.114 Safari/537.36 Edg/91.0.864.59","W1920,H1080","1770 x 937","true","","0","20","5","11","0","0","0"
"836.1999999880791","img/Floppy.png","40","image-keyboard-response","26","37585","0.0-5.0-0.21","Mozilla/5.0 (Windows NT 10.0; Win64; x64) AppleWebKit/537.36 (KHTML, like Gecko) Chrome/91.0.4472.114 Safari/537.36 Edg/91.0.864.59","W1920,H1080","1770 x 937","true","","0","21","7","11","0","0","0"
"900","img/Soapdispenser.png","40","image-keyboard-response","27","38487","0.0-5.0-0.22","Mozilla/5.0 (Windows NT 10.0; Win64; x64) AppleWebKit/537.36 (KHTML, like Gecko) Chrome/91.0.4472.114 Safari/537.36 Edg/91.0.864.59","W1920,H1080","1770 x 937","true","","0","22","9","11","0","0","0"
"855.5","img/Floppy.png","40","image-keyboard-response","28","39345","0.0-5.0-0.23","Mozilla/5.0 (Windows NT 10.0; Win64; x64) AppleWebKit/537.36 (KHTML, like Gecko) Chrome/91.0.4472.114 Safari/537.36 Edg/91.0.864.59","W1920,H1080","1770 x 937","true","","0","23","7","11","0","0","0"
"810.3000000119209","img/Cap.png","40","image-keyboard-response","29","40157","0.0-5.0-0.24","Mozilla/5.0 (Windows NT 10.0; Win64; x64) AppleWebKit/537.36 (KHTML, like Gecko) Chrome/91.0.4472.114 Safari/537.36 Edg/91.0.864.59","W1920,H1080","1770 x 937","true","","0","24","8","11","0","0","0"
"818","img/Basket.png","40","image-keyboard-response","30","40977","0.0-5.0-0.25","Mozilla/5.0 (Windows NT 10.0; Win64; x64) AppleWebKit/537.36 (KHTML, like Gecko) Chrome/91.0.4472.114 Safari/537.36 Edg/91.0.864.59","W1920,H1080","1770 x 937","true","","0","25","6","11","0","0","0"
"917.6000000238419","img/Jar.png","40","image-keyboard-response","31","41896","0.0-5.0-0.26","Mozilla/5.0 (Windows NT 10.0; Win64; x64) AppleWebKit/537.36 (KHTML, like Gecko) Chrome/91.0.4472.114 Safari/537.36 Edg/91.0.864.59","W1920,H1080","1770 x 937","true","","0","26","5","11","0","0","0"
"827.2000000476837","img/Basket.png","40","image-keyboard-response","32","42726","0.0-5.0-0.27","Mozilla/5.0 (Windows NT 10.0; Win64; x64) AppleWebKit/537.36 (KHTML, like Gecko) Chrome/91.0.4472.114 Safari/537.36 Edg/91.0.864.59","W1920,H1080","1770 x 937","true","","0","27","6","11","0","0","0"
"768.3999999761581","img/Cap.png","40","image-keyboard-response","33","43497","0.0-5.0-0.28","Mozilla/5.0 (Windows NT 10.0; Win64; x64) AppleWebKit/537.36 (KHTML, like Gecko) Chrome/91.0.4472.114 Safari/537.36 Edg/91.0.864.59","W1920,H1080","1770 x 937","true","","0","28","8","11","0","0","0"
"1427.5999999642372","img/Floppy.png","40","image-keyboard-response","34","44927","0.0-5.0-0.29","Mozilla/5.0 (Windows NT 10.0; Win64; x64) AppleWebKit/537.36 (KHTML, like Gecko) Chrome/91.0.4472.114 Safari/537.36 Edg/91.0.864.59","W1920,H1080","1770 x 937","true","","0","29","7","11","0","0","0"
"737.7000000476837","img/Cap.png","40","image-keyboard-response","35","45666","0.0-5.0-0.30","Mozilla/5.0 (Windows NT 10.0; Win64; x64) AppleWebKit/537.36 (KHTML, like Gecko) Chrome/91.0.4472.114 Safari/537.36 Edg/91.0.864.59","W1920,H1080","1770 x 937","true","","0","30","8","11","0","0","0"
"797.8000000119209","img/Basket.png","40","image-keyboard-response","36","46467","0.0-5.0-0.31","Mozilla/5.0 (Windows NT 10.0; Win64; x64) AppleWebKit/537.36 (KHTML, like Gecko) Chrome/91.0.4472.114 Safari/537.36 Edg/91.0.864.59","W1920,H1080","1770 x 937","true","","0","31","6","11","0","0","0"
"846.8000000119209","img/Soapdispenser.png","40","image-keyboard-response","37","47318","0.0-5.0-0.32","Mozilla/5.0 (Windows NT 10.0; Win64; x64) AppleWebKit/537.36 (KHTML, like Gecko) Chrome/91.0.4472.114 Safari/537.36 Edg/91.0.864.59","W1920,H1080","1770 x 937","true","","0","32","9","11","0","0","0"
"765.1999999880791","img/Floppy.png","40","image-keyboard-response","38","48085","0.0-5.0-0.33","Mozilla/5.0 (Windows NT 10.0; Win64; x64) AppleWebKit/537.36 (KHTML, like Gecko) Chrome/91.0.4472.114 Safari/537.36 Edg/91.0.864.59","W1920,H1080","1770 x 937","true","","0","33","7","11","0","0","0"
"781","img/Jar.png","40","image-keyboard-response","39","48867","0.0-5.0-0.34","Mozilla/5.0 (Windows NT 10.0; Win64; x64) AppleWebKit/537.36 (KHTML, like Gecko) Chrome/91.0.4472.114 Safari/537.36 Edg/91.0.864.59","W1920,H1080","1770 x 937","true","","0","34","5","11","0","0","0"
"795.6999999880791","img/Cap.png","40","image-keyboard-response","40","49666","0.0-5.0-0.35","Mozilla/5.0 (Windows NT 10.0; Win64; x64) AppleWebKit/537.36 (KHTML, like Gecko) Chrome/91.0.4472.114 Safari/537.36 Edg/91.0.864.59","W1920,H1080","1770 x 937","true","","0","35","8","11","0","0","0"
"770.2999999523163","img/Soapdispenser.png","40","image-keyboard-response","41","50437","0.0-5.0-0.36","Mozilla/5.0 (Windows NT 10.0; Win64; x64) AppleWebKit/537.36 (KHTML, like Gecko) Chrome/91.0.4472.114 Safari/537.36 Edg/91.0.864.59","W1920,H1080","1770 x 937","true","","0","36","9","11","0","0","0"
"847","img/Ovenmitt.png","40","image-keyboard-response","42","51286","0.0-5.0-0.37","Mozilla/5.0 (Windows NT 10.0; Win64; x64) AppleWebKit/537.36 (KHTML, like Gecko) Chrome/91.0.4472.114 Safari/537.36 Edg/91.0.864.59","W1920,H1080","1770 x 937","true","","0","37","10","11","0","0","0"
"918.7000000476837","img/Fryingpan.png","39","image-keyboard-response","43","52205","0.0-5.0-0.38","Mozilla/5.0 (Windows NT 10.0; Win64; x64) AppleWebKit/537.36 (KHTML, like Gecko) Chrome/91.0.4472.114 Safari/537.36 Edg/91.0.864.59","W1920,H1080","1770 x 937","true","","0","38","12","11","1","0","1"
"859.8999999761581","img/Mug.png","39","image-keyboard-response","44","53067","0.0-5.0-0.39","Mozilla/5.0 (Windows NT 10.0; Win64; x64) AppleWebKit/537.36 (KHTML, like Gecko) Chrome/91.0.4472.114 Safari/537.36 Edg/91.0.864.59","W1920,H1080","1770 x 937","true","","0","39","14","11","1","0","2"
"858.3999999761581","img/Toaster.png","39","image-keyboard-response","45","53927","0.0-5.0-0.40","Mozilla/5.0 (Windows NT 10.0; Win64; x64) AppleWebKit/537.36 (KHTML, like Gecko) Chrome/91.0.4472.114 Safari/537.36 Edg/91.0.864.59","W1920,H1080","1770 x 937","true","","0","40","13","11","1","0","3"
"null","img/Clipboard.png","null","image-keyboard-response","46","53946","0.0-5.0-0.41","Mozilla/5.0 (Windows NT 10.0; Win64; x64) AppleWebKit/537.36 (KHTML, like Gecko) Chrome/91.0.4472.114 Safari/537.36 Edg/91.0.864.59","W1920,H1080","1770 x 937","true","","0","41","11","11","0","15","0"
"4291.199999988079","img/Clipboard.png","38","image-keyboard-response","47","58238","0.0-6.0-0.0","Mozilla/5.0 (Windows NT 10.0; Win64; x64) AppleWebKit/537.36 (KHTML, like Gecko) Chrome/91.0.4472.114 Safari/537.36 Edg/91.0.864.59","W1920,H1080","1770 x 937","true","","","","","","","",""
"637.7000000476837","img/Clipboard.png","40","image-keyboard-response","48","58877","0.0-7.0-0.0","Mozilla/5.0 (Windows NT 10.0; Win64; x64) AppleWebKit/537.36 (KHTML, like Gecko) Chrome/91.0.4472.114 Safari/537.36 Edg/91.0.864.59","W1920,H1080","1770 x 937","true","","1","0","11","6","0","15","0"
"926.8999999761581","img/Toaster.png","40","image-keyboard-response","49","59806","0.0-7.0-0.1","Mozilla/5.0 (Windows NT 10.0; Win64; x64) AppleWebKit/537.36 (KHTML, like Gecko) Chrome/91.0.4472.114 Safari/537.36 Edg/91.0.864.59","W1920,H1080","1770 x 937","true","","1","1","13","6","0","15","0"
"730.6000000238419","img/Fryingpan.png","40","image-keyboard-response","50","60538","0.0-7.0-0.2","Mozilla/5.0 (Windows NT 10.0; Win64; x64) AppleWebKit/537.36 (KHTML, like Gecko) Chrome/91.0.4472.114 Safari/537.36 Edg/91.0.864.59","W1920,H1080","1770 x 937","true","","1","2","12","6","0","15","0"
"686.1999999880791","img/Ovenmitt.png","40","image-keyboard-response","51","61227","0.0-7.0-0.3","Mozilla/5.0 (Windows NT 10.0; Win64; x64) AppleWebKit/537.36 (KHTML, like Gecko) Chrome/91.0.4472.114 Safari/537.36 Edg/91.0.864.59","W1920,H1080","1770 x 937","true","","1","3","10","6","0","15","0"
"777.1999999880791","img/Soapdispenser.png","40","image-keyboard-response","52","62007","0.0-7.0-0.4","Mozilla/5.0 (Windows NT 10.0; Win64; x64) AppleWebKit/537.36 (KHTML, like Gecko) Chrome/91.0.4472.114 Safari/537.36 Edg/91.0.864.59","W1920,H1080","1770 x 937","true","","1","4","9","6","0","15","0"
"658.5","img/Cap.png","39","image-keyboard-response","53","62667","0.0-7.0-0.5","Mozilla/5.0 (Windows NT 10.0; Win64; x64) AppleWebKit/537.36 (KHTML, like Gecko) Chrome/91.0.4472.114 Safari/537.36 Edg/91.0.864.59","W1920,H1080","1770 x 937","true","","1","5","8","6","1","14","1"
"767.5999999642372","img/Floppy.png","39","image-keyboard-response","54","63437","0.0-7.0-0.6","Mozilla/5.0 (Windows NT 10.0; Win64; x64) AppleWebKit/537.36 (KHTML, like Gecko) Chrome/91.0.4472.114 Safari/537.36 Edg/91.0.864.59","W1920,H1080","1770 x 937","true","","1","6","7","6","1","12","2"
"725.5999999642372","img/Cap.png","39","image-keyboard-response","55","64166","0.0-7.0-0.7","Mozilla/5.0 (Windows NT 10.0; Win64; x64) AppleWebKit/537.36 (KHTML, like Gecko) Chrome/91.0.4472.114 Safari/537.36 Edg/91.0.864.59","W1920,H1080","1770 x 937","true","","1","7","8","6","1","9","3"
"749.8000000119209","img/Jar.png","39","image-keyboard-response","56","64917","0.0-7.0-0.8","Mozilla/5.0 (Windows NT 10.0; Win64; x64) AppleWebKit/537.36 (KHTML, like Gecko) Chrome/91.0.4472.114 Safari/537.36 Edg/91.0.864.59","W1920,H1080","1770 x 937","true","","1","8","5","6","1","5","4"
"848.4000000357628","img/Cap.png","39","image-keyboard-response","57","65767","0.0-7.0-0.9","Mozilla/5.0 (Windows NT 10.0; Win64; x64) AppleWebKit/537.36 (KHTML, like Gecko) Chrome/91.0.4472.114 Safari/537.36 Edg/91.0.864.59","W1920,H1080","1770 x 937","true","","1","9","8","6","1","0","5"
"827.5999999642372","img/Jar.png","40","image-keyboard-response","58","66597","0.0-7.0-0.10","Mozilla/5.0 (Windows NT 10.0; Win64; x64) AppleWebKit/537.36 (KHTML, like Gecko) Chrome/91.0.4472.114 Safari/537.36 Edg/91.0.864.59","W1920,H1080","1770 x 937","true","","1","10","5","6","0","0","5"
"null","img/Basket.png","null","image-keyboard-response","59","66602","0.0-7.0-0.11","Mozilla/5.0 (Windows NT 10.0; Win64; x64) AppleWebKit/537.36 (KHTML, like Gecko) Chrome/91.0.4472.114 Safari/537.36 Edg/91.0.864.59","W1920,H1080","1770 x 937","true","","1","11","6","6","0","25","0"
"5615.900000035763","img/Basket.png","38","image-keyboard-response","60","72219","0.0-8.0-0.0","Mozilla/5.0 (Windows NT 10.0; Win64; x64) AppleWebKit/537.36 (KHTML, like Gecko) Chrome/91.0.4472.114 Safari/537.36 Edg/91.0.864.59","W1920,H1080","1770 x 937","true","","","","","","","",""
"634.8999999761581","img/Basket.png","40","image-keyboard-response","61","72857","0.0-9.0-0.0","Mozilla/5.0 (Windows NT 10.0; Win64; x64) AppleWebKit/537.36 (KHTML, like Gecko) Chrome/91.0.4472.114 Safari/537.36 Edg/91.0.864.59","W1920,H1080","1770 x 937","true","","2","0","6","1","0","25","0"
"676.5","img/Jar.png","40","image-keyboard-response","62","73535","0.0-9.0-0.1","Mozilla/5.0 (Windows NT 10.0; Win64; x64) AppleWebKit/537.36 (KHTML, like Gecko) Chrome/91.0.4472.114 Safari/537.36 Edg/91.0.864.59","W1920,H1080","1770 x 937","true","","2","1","5","1","0","25","0"
"680","img/Floppy.png","40","image-keyboard-response","63","74217","0.0-9.0-0.2","Mozilla/5.0 (Windows NT 10.0; Win64; x64) AppleWebKit/537.36 (KHTML, like Gecko) Chrome/91.0.4472.114 Safari/537.36 Edg/91.0.864.59","W1920,H1080","1770 x 937","true","","2","2","7","1","0","25","0"
"556.3000000119209","img/Cap.png","40","image-keyboard-response","64","74775","0.0-9.0-0.3","Mozilla/5.0 (Windows NT 10.0; Win64; x64) AppleWebKit/537.36 (KHTML, like Gecko) Chrome/91.0.4472.114 Safari/537.36 Edg/91.0.864.59","W1920,H1080","1770 x 937","true","","2","3","8","1","0","25","0"
"590.5","img/Soapdispenser.png","40","image-keyboard-response","65","75367","0.0-9.0-0.4","Mozilla/5.0 (Windows NT 10.0; Win64; x64) AppleWebKit/537.36 (KHTML, like Gecko) Chrome/91.0.4472.114 Safari/537.36 Edg/91.0.864.59","W1920,H1080","1770 x 937","true","","2","4","9","1","0","25","0"
"627.1000000238419","img/Basket.png","40","image-keyboard-response","66","75996","0.0-9.0-0.5","Mozilla/5.0 (Windows NT 10.0; Win64; x64) AppleWebKit/537.36 (KHTML, like Gecko) Chrome/91.0.4472.114 Safari/537.36 Edg/91.0.864.59","W1920,H1080","1770 x 937","true","","2","5","6","1","0","25","0"
"589.6000000238419","img/Soapdispenser.png","40","image-keyboard-response","67","76586","0.0-9.0-0.6","Mozilla/5.0 (Windows NT 10.0; Win64; x64) AppleWebKit/537.36 (KHTML, like Gecko) Chrome/91.0.4472.114 Safari/537.36 Edg/91.0.864.59","W1920,H1080","1770 x 937","true","","2","6","9","1","0","25","0"
"597.6000000238419","img/Floppy.png","40","image-keyboard-response","68","77187","0.0-9.0-0.7","Mozilla/5.0 (Windows NT 10.0; Win64; x64) AppleWebKit/537.36 (KHTML, like Gecko) Chrome/91.0.4472.114 Safari/537.36 Edg/91.0.864.59","W1920,H1080","1770 x 937","true","","2","7","7","1","0","25","0"
"686.8999999761581","img/Jar.png","40","image-keyboard-response","69","77876","0.0-9.0-0.8","Mozilla/5.0 (Windows NT 10.0; Win64; x64) AppleWebKit/537.36 (KHTML, like Gecko) Chrome/91.0.4472.114 Safari/537.36 Edg/91.0.864.59","W1920,H1080","1770 x 937","true","","2","8","5","1","0","25","0"
"599","img/Cap.png","40","image-keyboard-response","70","78475","0.0-9.0-0.9","Mozilla/5.0 (Windows NT 10.0; Win64; x64) AppleWebKit/537.36 (KHTML, like Gecko) Chrome/91.0.4472.114 Safari/537.36 Edg/91.0.864.59","W1920,H1080","1770 x 937","true","","2","9","8","1","0","25","0"
"590.5999999642372","img/Floppy.png","40","image-keyboard-response","71","79067","0.0-9.0-0.10","Mozilla/5.0 (Windows NT 10.0; Win64; x64) AppleWebKit/537.36 (KHTML, like Gecko) Chrome/91.0.4472.114 Safari/537.36 Edg/91.0.864.59","W1920,H1080","1770 x 937","true","","2","10","7","1","0","25","0"
"537.3000000119209","img/Basket.png","40","image-keyboard-response","72","79607","0.0-9.0-0.11","Mozilla/5.0 (Windows NT 10.0; Win64; x64) AppleWebKit/537.36 (KHTML, like Gecko) Chrome/91.0.4472.114 Safari/537.36 Edg/91.0.864.59","W1920,H1080","1770 x 937","true","","2","11","6","1","0","25","0"
"567.0999999642372","img/Cap.png","40","image-keyboard-response","73","80177","0.0-9.0-0.12","Mozilla/5.0 (Windows NT 10.0; Win64; x64) AppleWebKit/537.36 (KHTML, like Gecko) Chrome/91.0.4472.114 Safari/537.36 Edg/91.0.864.59","W1920,H1080","1770 x 937","true","","2","12","8","1","0","25","0"
"587.8000000119209","img/Jar.png","40","image-keyboard-response","74","80766","0.0-9.0-0.13","Mozilla/5.0 (Windows NT 10.0; Win64; x64) AppleWebKit/537.36 (KHTML, like Gecko) Chrome/91.0.4472.114 Safari/537.36 Edg/91.0.864.59","W1920,H1080","1770 x 937","true","","2","13","5","1","0","25","0"
"606.7000000476837","img/Basket.png","40","image-keyboard-response","75","81375","0.0-9.0-0.14","Mozilla/5.0 (Windows NT 10.0; Win64; x64) AppleWebKit/537.36 (KHTML, like Gecko) Chrome/91.0.4472.114 Safari/537.36 Edg/91.0.864.59","W1920,H1080","1770 x 937","true","","2","14","6","1","0","25","0"
"630.2999999523163","img/Jar.png","40","image-keyboard-response","76","82007","0.0-9.0-0.15","Mozilla/5.0 (Windows NT 10.0; Win64; x64) AppleWebKit/537.36 (KHTML, like Gecko) Chrome/91.0.4472.114 Safari/537.36 Edg/91.0.864.59","W1920,H1080","1770 x 937","true","","2","15","5","1","0","25","0"
"727.8999999761581","img/Cap.png","40","image-keyboard-response","77","82737","0.0-9.0-0.16","Mozilla/5.0 (Windows NT 10.0; Win64; x64) AppleWebKit/537.36 (KHTML, like Gecko) Chrome/91.0.4472.114 Safari/537.36 Edg/91.0.864.59","W1920,H1080","1770 x 937","true","","2","16","8","1","0","25","0"
"558.1999999880791","img/Soapdispenser.png","40","image-keyboard-response","78","83297","0.0-9.0-0.17","Mozilla/5.0 (Windows NT 10.0; Win64; x64) AppleWebKit/537.36 (KHTML, like Gecko) Chrome/91.0.4472.114 Safari/537.36 Edg/91.0.864.59","W1920,H1080","1770 x 937","true","","2","17","9","1","0","25","0"
"757.5","img/Ovenmitt.png","40","image-keyboard-response","79","84057","0.0-9.0-0.18","Mozilla/5.0 (Windows NT 10.0; Win64; x64) AppleWebKit/537.36 (KHTML, like Gecko) Chrome/91.0.4472.114 Safari/537.36 Edg/91.0.864.59","W1920,H1080","1770 x 937","true","","2","18","10","1","0","25","0"
"867.5","img/Fryingpan.png","40","image-keyboard-response","80","84927","0.0-9.0-0.19","Mozilla/5.0 (Windows NT 10.0; Win64; x64) AppleWebKit/537.36 (KHTML, like Gecko) Chrome/91.0.4472.114 Safari/537.36 Edg/91.0.864.59","W1920,H1080","1770 x 937","true","","2","19","12","1","0","25","0"
"657","img/Ovenmitt.png","40","image-keyboard-response","81","85586","0.0-9.0-0.20","Mozilla/5.0 (Windows NT 10.0; Win64; x64) AppleWebKit/537.36 (KHTML, like Gecko) Chrome/91.0.4472.114 Safari/537.36 Edg/91.0.864.59","W1920,H1080","1770 x 937","true","","2","20","10","1","0","25","0"
"569.2999999523163","img/Fryingpan.png","40","image-keyboard-response","82","86157","0.0-9.0-0.21","Mozilla/5.0 (Windows NT 10.0; Win64; x64) AppleWebKit/537.36 (KHTML, like Gecko) Chrome/91.0.4472.114 Safari/537.36 Edg/91.0.864.59","W1920,H1080","1770 x 937","true","","2","21","12","1","0","25","0"
"617.8999999761581","img/Clipboard.png","40","image-keyboard-response","83","86777","0.0-9.0-0.22","Mozilla/5.0 (Windows NT 10.0; Win64; x64) AppleWebKit/537.36 (KHTML, like Gecko) Chrome/91.0.4472.114 Safari/537.36 Edg/91.0.864.59","W1920,H1080","1770 x 937","true","","2","22","11","1","0","25","0"
"607.2999999523163","img/Fryingpan.png","40","image-keyboard-response","84","87387","0.0-9.0-0.23","Mozilla/5.0 (Windows NT 10.0; Win64; x64) AppleWebKit/537.36 (KHTML, like Gecko) Chrome/91.0.4472.114 Safari/537.36 Edg/91.0.864.59","W1920,H1080","1770 x 937","true","","2","23","12","1","0","25","0"
"568.1000000238419","img/Clipboard.png","40","image-keyboard-response","85","87957","0.0-9.0-0.24","Mozilla/5.0 (Windows NT 10.0; Win64; x64) AppleWebKit/537.36 (KHTML, like Gecko) Chrome/91.0.4472.114 Safari/537.36 Edg/91.0.864.59","W1920,H1080","1770 x 937","true","","2","24","11","1","0","25","0"
"646.7000000476837","img/Ovenmitt.png","40","image-keyboard-response","86","88605","0.0-9.0-0.25","Mozilla/5.0 (Windows NT 10.0; Win64; x64) AppleWebKit/537.36 (KHTML, like Gecko) Chrome/91.0.4472.114 Safari/537.36 Edg/91.0.864.59","W1920,H1080","1770 x 937","true","","2","25","10","1","0","25","0"
"649.3000000119209","img/Toaster.png","40","image-keyboard-response","87","89255","0.0-9.0-0.26","Mozilla/5.0 (Windows NT 10.0; Win64; x64) AppleWebKit/537.36 (KHTML, like Gecko) Chrome/91.0.4472.114 Safari/537.36 Edg/91.0.864.59","W1920,H1080","1770 x 937","true","","2","26","13","1","0","25","0"
"748.7000000476837","img/Mug.png","40","image-keyboard-response","88","90005","0.0-9.0-0.27","Mozilla/5.0 (Windows NT 10.0; Win64; x64) AppleWebKit/537.36 (KHTML, like Gecko) Chrome/91.0.4472.114 Safari/537.36 Edg/91.0.864.59","W1920,H1080","1770 x 937","true","","2","27","14","1","0","25","0"
"650.5","img/Toaster.png","40","image-keyboard-response","89","90657","0.0-9.0-0.28","Mozilla/5.0 (Windows NT 10.0; Win64; x64) AppleWebKit/537.36 (KHTML, like Gecko) Chrome/91.0.4472.114 Safari/537.36 Edg/91.0.864.59","W1920,H1080","1770 x 937","true","","2","28","13","1","0","25","0"
"527.9000000357628","img/Fryingpan.png","40","image-keyboard-response","90","91187","0.0-9.0-0.29","Mozilla/5.0 (Windows NT 10.0; Win64; x64) AppleWebKit/537.36 (KHTML, like Gecko) Chrome/91.0.4472.114 Safari/537.36 Edg/91.0.864.59","W1920,H1080","1770 x 937","true","","2","29","12","1","0","25","0"
"638.8999999761581","img/Toaster.png","40","image-keyboard-response","91","91828","0.0-9.0-0.30","Mozilla/5.0 (Windows NT 10.0; Win64; x64) AppleWebKit/537.36 (KHTML, like Gecko) Chrome/91.0.4472.114 Safari/537.36 Edg/91.0.864.59","W1920,H1080","1770 x 937","true","","2","30","13","1","0","25","0"
"555.6000000238419","img/Clipboard.png","40","image-keyboard-response","92","92386","0.0-9.0-0.31","Mozilla/5.0 (Windows NT 10.0; Win64; x64) AppleWebKit/537.36 (KHTML, like Gecko) Chrome/91.0.4472.114 Safari/537.36 Edg/91.0.864.59","W1920,H1080","1770 x 937","true","","2","31","11","1","0","25","0"
"549.5999999642372","img/Toaster.png","40","image-keyboard-response","93","92936","0.0-9.0-0.32","Mozilla/5.0 (Windows NT 10.0; Win64; x64) AppleWebKit/537.36 (KHTML, like Gecko) Chrome/91.0.4472.114 Safari/537.36 Edg/91.0.864.59","W1920,H1080","1770 x 937","true","","2","32","13","1","0","25","0"
"538.5","img/Clipboard.png","40","image-keyboard-response","94","93477","0.0-9.0-0.33","Mozilla/5.0 (Windows NT 10.0; Win64; x64) AppleWebKit/537.36 (KHTML, like Gecko) Chrome/91.0.4472.114 Safari/537.36 Edg/91.0.864.59","W1920,H1080","1770 x 937","true","","2","33","11","1","0","25","0"
"587.1999999880791","img/Fryingpan.png","40","image-keyboard-response","95","94066","0.0-9.0-0.34","Mozilla/5.0 (Windows NT 10.0; Win64; x64) AppleWebKit/537.36 (KHTML, like Gecko) Chrome/91.0.4472.114 Safari/537.36 Edg/91.0.864.59","W1920,H1080","1770 x 937","true","","2","34","12","1","0","25","0"
"586.1999999880791","img/Toaster.png","40","image-keyboard-response","96","94655","0.0-9.0-0.35","Mozilla/5.0 (Windows NT 10.0; Win64; x64) AppleWebKit/537.36 (KHTML, like Gecko) Chrome/91.0.4472.114 Safari/537.36 Edg/91.0.864.59","W1920,H1080","1770 x 937","true","","2","35","13","1","0","25","0"
"580.6000000238419","img/Clipboard.png","40","image-keyboard-response","97","95237","0.0-9.0-0.36","Mozilla/5.0 (Windows NT 10.0; Win64; x64) AppleWebKit/537.36 (KHTML, like Gecko) Chrome/91.0.4472.114 Safari/537.36 Edg/91.0.864.59","W1920,H1080","1770 x 937","true","","2","36","11","1","0","25","0"
"617.8000000119209","img/Fryingpan.png","40","image-keyboard-response","98","95856","0.0-9.0-0.37","Mozilla/5.0 (Windows NT 10.0; Win64; x64) AppleWebKit/537.36 (KHTML, like Gecko) Chrome/91.0.4472.114 Safari/537.36 Edg/91.0.864.59","W1920,H1080","1770 x 937","true","","2","37","12","1","0","25","0"
"708.1000000238419","img/Toaster.png","40","image-keyboard-response","99","96567","0.0-9.0-0.38","Mozilla/5.0 (Windows NT 10.0; Win64; x64) AppleWebKit/537.36 (KHTML, like Gecko) Chrome/91.0.4472.114 Safari/537.36 Edg/91.0.864.59","W1920,H1080","1770 x 937","true","","2","38","13","1","0","25","0"
"787.3999999761581","img/Mug.png","40","image-keyboard-response","100","97357","0.0-9.0-0.39","Mozilla/5.0 (Windows NT 10.0; Win64; x64) AppleWebKit/537.36 (KHTML, like Gecko) Chrome/91.0.4472.114 Safari/537.36 Edg/91.0.864.59","W1920,H1080","1770 x 937","true","","2","39","14","1","0","25","0"
"847.8000000119209","img/Lightbulb.png","39","image-keyboard-response","101","98207","0.0-9.0-0.40","Mozilla/5.0 (Windows NT 10.0; Win64; x64) AppleWebKit/537.36 (KHTML, like Gecko) Chrome/91.0.4472.114 Safari/537.36 Edg/91.0.864.59","W1920,H1080","1770 x 937","true","","2","40","0","1","1","24","1"
"null","img/Book.png","null","image-keyboard-response","102","98212","0.0-9.0-0.41","Mozilla/5.0 (Windows NT 10.0; Win64; x64) AppleWebKit/537.36 (KHTML, like Gecko) Chrome/91.0.4472.114 Safari/537.36 Edg/91.0.864.59","W1920,H1080","1770 x 937","true","","2","41","1","1","0","29","0"
"2274.800000011921","img/Book.png","38","image-keyboard-response","103","100488","0.0-10.0-0.0","Mozilla/5.0 (Windows NT 10.0; Win64; x64) AppleWebKit/537.36 (KHTML, like Gecko) Chrome/91.0.4472.114 Safari/537.36 Edg/91.0.864.59","W1920,H1080","1770 x 937","true","","","","","","","",""
"427.4000000357628","img/Book.png","40","image-keyboard-response","104","100917","0.0-11.0-0.0","Mozilla/5.0 (Windows NT 10.0; Win64; x64) AppleWebKit/537.36 (KHTML, like Gecko) Chrome/91.0.4472.114 Safari/537.36 Edg/91.0.864.59","W1920,H1080","1770 x 937","true","","3","0","1","9","0","29","0"
"638.1000000238419","img/Boot.png","40","image-keyboard-response","105","101557","0.0-11.0-0.1","Mozilla/5.0 (Windows NT 10.0; Win64; x64) AppleWebKit/537.36 (KHTML, like Gecko) Chrome/91.0.4472.114 Safari/537.36 Edg/91.0.864.59","W1920,H1080","1770 x 937","true","","3","1","4","9","0","29","0"
"517.1999999880791","img/Book.png","40","image-keyboard-response","106","102076","0.0-11.0-0.2","Mozilla/5.0 (Windows NT 10.0; Win64; x64) AppleWebKit/537.36 (KHTML, like Gecko) Chrome/91.0.4472.114 Safari/537.36 Edg/91.0.864.59","W1920,H1080","1770 x 937","true","","3","2","1","9","0","29","0"
"687.6999999880791","img/Lightbulb.png","40","image-keyboard-response","107","102765","0.0-11.0-0.3","Mozilla/5.0 (Windows NT 10.0; Win64; x64) AppleWebKit/537.36 (KHTML, like Gecko) Chrome/91.0.4472.114 Safari/537.36 Edg/91.0.864.59","W1920,H1080","1770 x 937","true","","3","3","0","9","0","29","0"
"729.8000000119209","img/Balloon.png","40","image-keyboard-response","108","103496","0.0-11.0-0.4","Mozilla/5.0 (Windows NT 10.0; Win64; x64) AppleWebKit/537.36 (KHTML, like Gecko) Chrome/91.0.4472.114 Safari/537.36 Edg/91.0.864.59","W1920,H1080","1770 x 937","true","","3","4","3","9","0","29","0"
"798.0999999642372","img/Lightbulb.png","40","image-keyboard-response","109","104297","0.0-11.0-0.5","Mozilla/5.0 (Windows NT 10.0; Win64; x64) AppleWebKit/537.36 (KHTML, like Gecko) Chrome/91.0.4472.114 Safari/537.36 Edg/91.0.864.59","W1920,H1080","1770 x 937","true","","3","5","0","9","0","29","0"
"697.3999999761581","img/Book.png","40","image-keyboard-response","110","104996","0.0-11.0-0.6","Mozilla/5.0 (Windows NT 10.0; Win64; x64) AppleWebKit/537.36 (KHTML, like Gecko) Chrome/91.0.4472.114 Safari/537.36 Edg/91.0.864.59","W1920,H1080","1770 x 937","true","","3","6","1","9","0","29","0"
"588.8999999761581","img/Lightbulb.png","40","image-keyboard-response","111","105587","0.0-11.0-0.7","Mozilla/5.0 (Windows NT 10.0; Win64; x64) AppleWebKit/537.36 (KHTML, like Gecko) Chrome/91.0.4472.114 Safari/537.36 Edg/91.0.864.59","W1920,H1080","1770 x 937","true","","3","7","0","9","0","29","0"
"626.5","img/Mug.png","40","image-keyboard-response","112","106216","0.0-11.0-0.8","Mozilla/5.0 (Windows NT 10.0; Win64; x64) AppleWebKit/537.36 (KHTML, like Gecko) Chrome/91.0.4472.114 Safari/537.36 Edg/91.0.864.59","W1920,H1080","1770 x 937","true","","3","8","14","9","0","29","0"
"756.8999999761581","img/Fryingpan.png","39","image-keyboard-response","113","106975","0.0-11.0-0.9","Mozilla/5.0 (Windows NT 10.0; Win64; x64) AppleWebKit/537.36 (KHTML, like Gecko) Chrome/91.0.4472.114 Safari/537.36 Edg/91.0.864.59","W1920,H1080","1770 x 937","true","","3","9","12","9","1","28","1"
"919.1000000238419","img/Clipboard.png","40","image-keyboard-response","114","107895","0.0-11.0-0.10","Mozilla/5.0 (Windows NT 10.0; Win64; x64) AppleWebKit/537.36 (KHTML, like Gecko) Chrome/91.0.4472.114 Safari/537.36 Edg/91.0.864.59","W1920,H1080","1770 x 937","true","","3","10","11","9","0","27","1"
"440.69999998807907","img/Fryingpan.png","37","image-keyboard-response","115","108336","0.0-11.0-0.11","Mozilla/5.0 (Windows NT 10.0; Win64; x64) AppleWebKit/537.36 (KHTML, like Gecko) Chrome/91.0.4472.114 Safari/537.36 Edg/91.0.864.59","W1920,H1080","1770 x 937","true","","3","11","12","9","-1","27","0"
"586.7999999523163","img/Mug.png","40","image-keyboard-response","116","108927","0.0-11.0-0.12","Mozilla/5.0 (Windows NT 10.0; Win64; x64) AppleWebKit/537.36 (KHTML, like Gecko) Chrome/91.0.4472.114 Safari/537.36 Edg/91.0.864.59","W1920,H1080","1770 x 937","true","","3","12","14","9","0","27","0"
"556.3000000119209","img/Clipboard.png","40","image-keyboard-response","117","109485","0.0-11.0-0.13","Mozilla/5.0 (Windows NT 10.0; Win64; x64) AppleWebKit/537.36 (KHTML, like Gecko) Chrome/91.0.4472.114 Safari/537.36 Edg/91.0.864.59","W1920,H1080","1770 x 937","true","","3","13","11","9","0","27","0"
"619","img/Fryingpan.png","40","image-keyboard-response","118","110105","0.0-11.0-0.14","Mozilla/5.0 (Windows NT 10.0; Win64; x64) AppleWebKit/537.36 (KHTML, like Gecko) Chrome/91.0.4472.114 Safari/537.36 Edg/91.0.864.59","W1920,H1080","1770 x 937","true","","3","14","12","9","0","27","0"
"520.5999999642372","img/Ovenmitt.png","40","image-keyboard-response","119","110626","0.0-11.0-0.15","Mozilla/5.0 (Windows NT 10.0; Win64; x64) AppleWebKit/537.36 (KHTML, like Gecko) Chrome/91.0.4472.114 Safari/537.36 Edg/91.0.864.59","W1920,H1080","1770 x 937","true","","3","15","10","9","0","27","0"
"517.1999999880791","img/Clipboard.png","40","image-keyboard-response","120","111147","0.0-11.0-0.16","Mozilla/5.0 (Windows NT 10.0; Win64; x64) AppleWebKit/537.36 (KHTML, like Gecko) Chrome/91.0.4472.114 Safari/537.36 Edg/91.0.864.59","W1920,H1080","1770 x 937","true","","3","16","11","9","0","27","0"
"527.9000000357628","img/Mug.png","40","image-keyboard-response","121","111677","0.0-11.0-0.17","Mozilla/5.0 (Windows NT 10.0; Win64; x64) AppleWebKit/537.36 (KHTML, like Gecko) Chrome/91.0.4472.114 Safari/537.36 Edg/91.0.864.59","W1920,H1080","1770 x 937","true","","3","17","14","9","0","27","0"
"567.4000000357628","img/Fryingpan.png","40","image-keyboard-response","122","112247","0.0-11.0-0.18","Mozilla/5.0 (Windows NT 10.0; Win64; x64) AppleWebKit/537.36 (KHTML, like Gecko) Chrome/91.0.4472.114 Safari/537.36 Edg/91.0.864.59","W1920,H1080","1770 x 937","true","","3","18","12","9","0","27","0"
"547.1999999880791","img/Mug.png","40","image-keyboard-response","123","112797","0.0-11.0-0.19","Mozilla/5.0 (Windows NT 10.0; Win64; x64) AppleWebKit/537.36 (KHTML, like Gecko) Chrome/91.0.4472.114 Safari/537.36 Edg/91.0.864.59","W1920,H1080","1770 x 937","true","","3","19","14","9","0","27","0"
"575.5","img/Lightbulb.png","40","image-keyboard-response","124","113376","0.0-11.0-0.20","Mozilla/5.0 (Windows NT 10.0; Win64; x64) AppleWebKit/537.36 (KHTML, like Gecko) Chrome/91.0.4472.114 Safari/537.36 Edg/91.0.864.59","W1920,H1080","1770 x 937","true","","3","20","0","9","0","27","0"
"506.60000002384186","img/Mug.png","40","image-keyboard-response","125","113885","0.0-11.0-0.21","Mozilla/5.0 (Windows NT 10.0; Win64; x64) AppleWebKit/537.36 (KHTML, like Gecko) Chrome/91.0.4472.114 Safari/537.36 Edg/91.0.864.59","W1920,H1080","1770 x 937","true","","3","21","14","9","0","27","0"
"460.19999998807907","img/Fryingpan.png","40","image-keyboard-response","126","114346","0.0-11.0-0.22","Mozilla/5.0 (Windows NT 10.0; Win64; x64) AppleWebKit/537.36 (KHTML, like Gecko) Chrome/91.0.4472.114 Safari/537.36 Edg/91.0.864.59","W1920,H1080","1770 x 937","true","","3","22","12","9","0","27","0"
"536.5999999642372","img/Clipboard.png","40","image-keyboard-response","127","114885","0.0-11.0-0.23","Mozilla/5.0 (Windows NT 10.0; Win64; x64) AppleWebKit/537.36 (KHTML, like Gecko) Chrome/91.0.4472.114 Safari/537.36 Edg/91.0.864.59","W1920,H1080","1770 x 937","true","","3","23","11","9","0","27","0"
"550.5","img/Ovenmitt.png","40","image-keyboard-response","128","115437","0.0-11.0-0.24","Mozilla/5.0 (Windows NT 10.0; Win64; x64) AppleWebKit/537.36 (KHTML, like Gecko) Chrome/91.0.4472.114 Safari/537.36 Edg/91.0.864.59","W1920,H1080","1770 x 937","true","","3","24","10","9","0","27","0"
"null","img/Soapdispenser.png","null","image-keyboard-response","129","115442","0.0-11.0-0.25","Mozilla/5.0 (Windows NT 10.0; Win64; x64) AppleWebKit/537.36 (KHTML, like Gecko) Chrome/91.0.4472.114 Safari/537.36 Edg/91.0.864.59","W1920,H1080","1770 x 937","true","","3","25","9","9","0","27","0"
"1083.199999988079","img/Soapdispenser.png","38","image-keyboard-response","130","116527","0.0-12.0-0.0","Mozilla/5.0 (Windows NT 10.0; Win64; x64) AppleWebKit/537.36 (KHTML, like Gecko) Chrome/91.0.4472.114 Safari/537.36 Edg/91.0.864.59","W1920,H1080","1770 x 937","true","","","","","","","",""
"587.1999999880791","img/Soapdispenser.png","40","image-keyboard-response","131","117117","0.0-13.0-0.0","Mozilla/5.0 (Windows NT 10.0; Win64; x64) AppleWebKit/537.36 (KHTML, like Gecko) Chrome/91.0.4472.114 Safari/537.36 Edg/91.0.864.59","W1920,H1080","1770 x 937","true","","4","0","9","4","0","27","0"
"585.3999999761581","img/Cap.png","40","image-keyboard-response","132","117705","0.0-13.0-0.1","Mozilla/5.0 (Windows NT 10.0; Win64; x64) AppleWebKit/537.36 (KHTML, like Gecko) Chrome/91.0.4472.114 Safari/537.36 Edg/91.0.864.59","W1920,H1080","1770 x 937","true","","4","1","8","4","0","27","0"
"578.5","img/Soapdispenser.png","40","image-keyboard-response","133","118284","0.0-13.0-0.2","Mozilla/5.0 (Windows NT 10.0; Win64; x64) AppleWebKit/537.36 (KHTML, like Gecko) Chrome/91.0.4472.114 Safari/537.36 Edg/91.0.864.59","W1920,H1080","1770 x 937","true","","4","2","9","4","0","27","0"
"571.2000000476837","img/Basket.png","40","image-keyboard-response","134","118857","0.0-13.0-0.3","Mozilla/5.0 (Windows NT 10.0; Win64; x64) AppleWebKit/537.36 (KHTML, like Gecko) Chrome/91.0.4472.114 Safari/537.36 Edg/91.0.864.59","W1920,H1080","1770 x 937","true","","4","3","6","4","0","27","0"
"556.8000000119209","img/Jar.png","40","image-keyboard-response","135","119416","0.0-13.0-0.4","Mozilla/5.0 (Windows NT 10.0; Win64; x64) AppleWebKit/537.36 (KHTML, like Gecko) Chrome/91.0.4472.114 Safari/537.36 Edg/91.0.864.59","W1920,H1080","1770 x 937","true","","4","4","5","4","0","27","0"
"null","img/Boot.png","null","image-keyboard-response","136","119421","0.0-13.0-0.5","Mozilla/5.0 (Windows NT 10.0; Win64; x64) AppleWebKit/537.36 (KHTML, like Gecko) Chrome/91.0.4472.114 Safari/537.36 Edg/91.0.864.59","W1920,H1080","1770 x 937","true","","4","5","4","4","0","27","0"
"982.1000000238419","img/Boot.png","38","image-keyboard-response","137","120405","0.0-14.0-0.0","Mozilla/5.0 (Windows NT 10.0; Win64; x64) AppleWebKit/537.36 (KHTML, like Gecko) Chrome/91.0.4472.114 Safari/537.36 Edg/91.0.864.59","W1920,H1080","1770 x 937","true","","","","","","","",""
"510","img/Boot.png","40","image-keyboard-response","138","120916","0.0-15.0-0.0","Mozilla/5.0 (Windows NT 10.0; Win64; x64) AppleWebKit/537.36 (KHTML, like Gecko) Chrome/91.0.4472.114 Safari/537.36 Edg/91.0.864.59","W1920,H1080","1770 x 937","true","","5","0","4","11","0","27","0"
"886","img/Jar.png","40","image-keyboard-response","139","121804","0.0-15.0-0.1","Mozilla/5.0 (Windows NT 10.0; Win64; x64) AppleWebKit/537.36 (KHTML, like Gecko) Chrome/91.0.4472.114 Safari/537.36 Edg/91.0.864.59","W1920,H1080","1770 x 937","true","","5","1","5","11","0","27","0"
"629.6000000238419","img/Cap.png","40","image-keyboard-response","140","122435","0.0-15.0-0.2","Mozilla/5.0 (Windows NT 10.0; Win64; x64) AppleWebKit/537.36 (KHTML, like Gecko) Chrome/91.0.4472.114 Safari/537.36 Edg/91.0.864.59","W1920,H1080","1770 x 937","true","","5","2","8","11","0","27","0"
"649.0999999642372","img/Jar.png","40","image-keyboard-response","141","123085","0.0-15.0-0.3","Mozilla/5.0 (Windows NT 10.0; Win64; x64) AppleWebKit/537.36 (KHTML, like Gecko) Chrome/91.0.4472.114 Safari/537.36 Edg/91.0.864.59","W1920,H1080","1770 x 937","true","","5","3","5","11","0","27","0"
"520","img/Floppy.png","40","image-keyboard-response","142","123607","0.0-15.0-0.4","Mozilla/5.0 (Windows NT 10.0; Win64; x64) AppleWebKit/537.36 (KHTML, like Gecko) Chrome/91.0.4472.114 Safari/537.36 Edg/91.0.864.59","W1920,H1080","1770 x 937","true","","5","4","7","11","0","27","0"
"548.0999999642372","img/Basket.png","40","image-keyboard-response","143","124157","0.0-15.0-0.5","Mozilla/5.0 (Windows NT 10.0; Win64; x64) AppleWebKit/537.36 (KHTML, like Gecko) Chrome/91.0.4472.114 Safari/537.36 Edg/91.0.864.59","W1920,H1080","1770 x 937","true","","5","5","6","11","0","27","0"
"475.5999999642372","img/Floppy.png","40","image-keyboard-response","144","124635","0.0-15.0-0.6","Mozilla/5.0 (Windows NT 10.0; Win64; x64) AppleWebKit/537.36 (KHTML, like Gecko) Chrome/91.0.4472.114 Safari/537.36 Edg/91.0.864.59","W1920,H1080","1770 x 937","true","","5","6","7","11","0","27","0"
"559.8000000119209","img/Soapdispenser.png","40","image-keyboard-response","145","125195","0.0-15.0-0.7","Mozilla/5.0 (Windows NT 10.0; Win64; x64) AppleWebKit/537.36 (KHTML, like Gecko) Chrome/91.0.4472.114 Safari/537.36 Edg/91.0.864.59","W1920,H1080","1770 x 937","true","","5","7","9","11","0","27","0"
"529.4000000357628","img/Ovenmitt.png","40","image-keyboard-response","146","125726","0.0-15.0-0.8","Mozilla/5.0 (Windows NT 10.0; Win64; x64) AppleWebKit/537.36 (KHTML, like Gecko) Chrome/91.0.4472.114 Safari/537.36 Edg/91.0.864.59","W1920,H1080","1770 x 937","true","","5","8","10","11","0","27","0"
"557.4000000357628","img/Soapdispenser.png","40","image-keyboard-response","147","126286","0.0-15.0-0.9","Mozilla/5.0 (Windows NT 10.0; Win64; x64) AppleWebKit/537.36 (KHTML, like Gecko) Chrome/91.0.4472.114 Safari/537.36 Edg/91.0.864.59","W1920,H1080","1770 x 937","true","","5","9","9","11","0","27","0"
"747.1000000238419","img/Floppy.png","40","image-keyboard-response","148","127035","0.0-15.0-0.10","Mozilla/5.0 (Windows NT 10.0; Win64; x64) AppleWebKit/537.36 (KHTML, like Gecko) Chrome/91.0.4472.114 Safari/537.36 Edg/91.0.864.59","W1920,H1080","1770 x 937","true","","5","10","7","11","0","27","0"
"499.5999999642372","img/Jar.png","40","image-keyboard-response","149","127536","0.0-15.0-0.11","Mozilla/5.0 (Windows NT 10.0; Win64; x64) AppleWebKit/537.36 (KHTML, like Gecko) Chrome/91.0.4472.114 Safari/537.36 Edg/91.0.864.59","W1920,H1080","1770 x 937","true","","5","11","5","11","0","27","0"
"506.7000000476837","img/Floppy.png","40","image-keyboard-response","150","128045","0.0-15.0-0.12","Mozilla/5.0 (Windows NT 10.0; Win64; x64) AppleWebKit/537.36 (KHTML, like Gecko) Chrome/91.0.4472.114 Safari/537.36 Edg/91.0.864.59","W1920,H1080","1770 x 937","true","","5","12","7","11","0","27","0"
"510.30000001192093","img/Soapdispenser.png","40","image-keyboard-response","151","128556","0.0-15.0-0.13","Mozilla/5.0 (Windows NT 10.0; Win64; x64) AppleWebKit/537.36 (KHTML, like Gecko) Chrome/91.0.4472.114 Safari/537.36 Edg/91.0.864.59","W1920,H1080","1770 x 937","true","","5","13","9","11","0","27","0"
"587.6999999880791","img/Cap.png","40","image-keyboard-response","152","129146","0.0-15.0-0.14","Mozilla/5.0 (Windows NT 10.0; Win64; x64) AppleWebKit/537.36 (KHTML, like Gecko) Chrome/91.0.4472.114 Safari/537.36 Edg/91.0.864.59","W1920,H1080","1770 x 937","true","","5","14","8","11","0","27","0"
"577.6999999880791","img/Floppy.png","40","image-keyboard-response","153","129726","0.0-15.0-0.15","Mozilla/5.0 (Windows NT 10.0; Win64; x64) AppleWebKit/537.36 (KHTML, like Gecko) Chrome/91.0.4472.114 Safari/537.36 Edg/91.0.864.59","W1920,H1080","1770 x 937","true","","5","15","7","11","0","27","0"
"537.6999999880791","img/Soapdispenser.png","40","image-keyboard-response","154","130266","0.0-15.0-0.16","Mozilla/5.0 (Windows NT 10.0; Win64; x64) AppleWebKit/537.36 (KHTML, like Gecko) Chrome/91.0.4472.114 Safari/537.36 Edg/91.0.864.59","W1920,H1080","1770 x 937","true","","5","16","9","11","0","27","0"
"508.4000000357628","img/Floppy.png","40","image-keyboard-response","155","130776","0.0-15.0-0.17","Mozilla/5.0 (Windows NT 10.0; Win64; x64) AppleWebKit/537.36 (KHTML, like Gecko) Chrome/91.0.4472.114 Safari/537.36 Edg/91.0.864.59","W1920,H1080","1770 x 937","true","","5","17","7","11","0","27","0"
"467.60000002384186","img/Soapdispenser.png","40","image-keyboard-response","156","131246","0.0-15.0-0.18","Mozilla/5.0 (Windows NT 10.0; Win64; x64) AppleWebKit/537.36 (KHTML, like Gecko) Chrome/91.0.4472.114 Safari/537.36 Edg/91.0.864.59","W1920,H1080","1770 x 937","true","","5","18","9","11","0","27","0"
"488.9000000357628","img/Cap.png","40","image-keyboard-response","157","131736","0.0-15.0-0.19","Mozilla/5.0 (Windows NT 10.0; Win64; x64) AppleWebKit/537.36 (KHTML, like Gecko) Chrome/91.0.4472.114 Safari/537.36 Edg/91.0.864.59","W1920,H1080","1770 x 937","true","","5","19","8","11","0","27","0"
"537.6999999880791","img/Basket.png","40","image-keyboard-response","158","132276","0.0-15.0-0.20","Mozilla/5.0 (Windows NT 10.0; Win64; x64) AppleWebKit/537.36 (KHTML, like Gecko) Chrome/91.0.4472.114 Safari/537.36 Edg/91.0.864.59","W1920,H1080","1770 x 937","true","","5","20","6","11","0","27","0"
"496.7999999523163","img/Cap.png","40","image-keyboard-response","159","132775","0.0-15.0-0.21","Mozilla/5.0 (Windows NT 10.0; Win64; x64) AppleWebKit/537.36 (KHTML, like Gecko) Chrome/91.0.4472.114 Safari/537.36 Edg/91.0.864.59","W1920,H1080","1770 x 937","true","","5","21","8","11","0","27","0"
"521","img/Floppy.png","40","image-keyboard-response","160","133297","0.0-15.0-0.22","Mozilla/5.0 (Windows NT 10.0; Win64; x64) AppleWebKit/537.36 (KHTML, like Gecko) Chrome/91.0.4472.114 Safari/537.36 Edg/91.0.864.59","W1920,H1080","1770 x 937","true","","5","22","7","11","0","27","0"
"475.39999997615814","img/Soapdispenser.png","40","image-keyboard-response","161","133775","0.0-15.0-0.23","Mozilla/5.0 (Windows NT 10.0; Win64; x64) AppleWebKit/537.36 (KHTML, like Gecko) Chrome/91.0.4472.114 Safari/537.36 Edg/91.0.864.59","W1920,H1080","1770 x 937","true","","5","23","9","11","0","27","0"
"560","img/Floppy.png","40","image-keyboard-response","162","134336","0.0-15.0-0.24","Mozilla/5.0 (Windows NT 10.0; Win64; x64) AppleWebKit/537.36 (KHTML, like Gecko) Chrome/91.0.4472.114 Safari/537.36 Edg/91.0.864.59","W1920,H1080","1770 x 937","true","","5","24","7","11","0","27","0"
"507.19999998807907","img/Soapdispenser.png","40","image-keyboard-response","163","134846","0.0-15.0-0.25","Mozilla/5.0 (Windows NT 10.0; Win64; x64) AppleWebKit/537.36 (KHTML, like Gecko) Chrome/91.0.4472.114 Safari/537.36 Edg/91.0.864.59","W1920,H1080","1770 x 937","true","","5","25","9","11","0","27","0"
"567.8000000119209","img/Floppy.png","40","image-keyboard-response","164","135416","0.0-15.0-0.26","Mozilla/5.0 (Windows NT 10.0; Win64; x64) AppleWebKit/537.36 (KHTML, like Gecko) Chrome/91.0.4472.114 Safari/537.36 Edg/91.0.864.59","W1920,H1080","1770 x 937","true","","5","26","7","11","0","27","0"
"535.4000000357628","img/Cap.png","40","image-keyboard-response","165","135955","0.0-15.0-0.27","Mozilla/5.0 (Windows NT 10.0; Win64; x64) AppleWebKit/537.36 (KHTML, like Gecko) Chrome/91.0.4472.114 Safari/537.36 Edg/91.0.864.59","W1920,H1080","1770 x 937","true","","5","27","8","11","0","27","0"
"480.80000001192093","img/Jar.png","40","image-keyboard-response","166","136436","0.0-15.0-0.28","Mozilla/5.0 (Windows NT 10.0; Win64; x64) AppleWebKit/537.36 (KHTML, like Gecko) Chrome/91.0.4472.114 Safari/537.36 Edg/91.0.864.59","W1920,H1080","1770 x 937","true","","5","28","5","11","0","27","0"
"476.5","img/Floppy.png","40","image-keyboard-response","167","136915","0.0-15.0-0.29","Mozilla/5.0 (Windows NT 10.0; Win64; x64) AppleWebKit/537.36 (KHTML, like Gecko) Chrome/91.0.4472.114 Safari/537.36 Edg/91.0.864.59","W1920,H1080","1770 x 937","true","","5","29","7","11","0","27","0"
"520","img/Jar.png","40","image-keyboard-response","168","137436","0.0-15.0-0.30","Mozilla/5.0 (Windows NT 10.0; Win64; x64) AppleWebKit/537.36 (KHTML, like Gecko) Chrome/91.0.4472.114 Safari/537.36 Edg/91.0.864.59","W1920,H1080","1770 x 937","true","","5","30","5","11","0","27","0"
"508.9000000357628","img/Basket.png","40","image-keyboard-response","169","137946","0.0-15.0-0.31","Mozilla/5.0 (Windows NT 10.0; Win64; x64) AppleWebKit/537.36 (KHTML, like Gecko) Chrome/91.0.4472.114 Safari/537.36 Edg/91.0.864.59","W1920,H1080","1770 x 937","true","","5","31","6","11","0","27","0"
"496.39999997615814","img/Cap.png","40","image-keyboard-response","170","138445","0.0-15.0-0.32","Mozilla/5.0 (Windows NT 10.0; Win64; x64) AppleWebKit/537.36 (KHTML, like Gecko) Chrome/91.0.4472.114 Safari/537.36 Edg/91.0.864.59","W1920,H1080","1770 x 937","true","","5","32","8","11","0","27","0"
"480","img/Floppy.png","40","image-keyboard-response","171","138926","0.0-15.0-0.33","Mozilla/5.0 (Windows NT 10.0; Win64; x64) AppleWebKit/537.36 (KHTML, like Gecko) Chrome/91.0.4472.114 Safari/537.36 Edg/91.0.864.59","W1920,H1080","1770 x 937","true","","5","33","7","11","0","27","0"
"488.0999999642372","img/Cap.png","40","image-keyboard-response","172","139416","0.0-15.0-0.34","Mozilla/5.0 (Windows NT 10.0; Win64; x64) AppleWebKit/537.36 (KHTML, like Gecko) Chrome/91.0.4472.114 Safari/537.36 Edg/91.0.864.59","W1920,H1080","1770 x 937","true","","5","34","8","11","0","27","0"
"487.19999998807907","img/Basket.png","40","image-keyboard-response","173","139906","0.0-15.0-0.35","Mozilla/5.0 (Windows NT 10.0; Win64; x64) AppleWebKit/537.36 (KHTML, like Gecko) Chrome/91.0.4472.114 Safari/537.36 Edg/91.0.864.59","W1920,H1080","1770 x 937","true","","5","35","6","11","0","27","0"
"487.9000000357628","img/Jar.png","40","image-keyboard-response","174","140396","0.0-15.0-0.36","Mozilla/5.0 (Windows NT 10.0; Win64; x64) AppleWebKit/537.36 (KHTML, like Gecko) Chrome/91.0.4472.114 Safari/537.36 Edg/91.0.864.59","W1920,H1080","1770 x 937","true","","5","36","5","11","0","27","0"
"517.8000000119209","img/Boot.png","40","image-keyboard-response","175","140916","0.0-15.0-0.37","Mozilla/5.0 (Windows NT 10.0; Win64; x64) AppleWebKit/537.36 (KHTML, like Gecko) Chrome/91.0.4472.114 Safari/537.36 Edg/91.0.864.59","W1920,H1080","1770 x 937","true","","5","37","4","11","0","27","0"
"467.80000001192093","img/Jar.png","40","image-keyboard-response","176","141386","0.0-15.0-0.38","Mozilla/5.0 (Windows NT 10.0; Win64; x64) AppleWebKit/537.36 (KHTML, like Gecko) Chrome/91.0.4472.114 Safari/537.36 Edg/91.0.864.59","W1920,H1080","1770 x 937","true","","5","38","5","11","0","27","0"
"506.7999999523163","img/Cap.png","40","image-keyboard-response","177","141896","0.0-15.0-0.39","Mozilla/5.0 (Windows NT 10.0; Win64; x64) AppleWebKit/537.36 (KHTML, like Gecko) Chrome/91.0.4472.114 Safari/537.36 Edg/91.0.864.59","W1920,H1080","1770 x 937","true","","5","39","8","11","0","27","0"
"467.89999997615814","img/Soapdispenser.png","40","image-keyboard-response","178","142366","0.0-15.0-0.40","Mozilla/5.0 (Windows NT 10.0; Win64; x64) AppleWebKit/537.36 (KHTML, like Gecko) Chrome/91.0.4472.114 Safari/537.36 Edg/91.0.864.59","W1920,H1080","1770 x 937","true","","5","40","9","11","0","27","0"
"947.6999999880791","img/Ovenmitt.png","39","image-keyboard-response","179","143316","0.0-15.0-0.41","Mozilla/5.0 (Windows NT 10.0; Win64; x64) AppleWebKit/537.36 (KHTML, like Gecko) Chrome/91.0.4472.114 Safari/537.36 Edg/91.0.864.59","W1920,H1080","1770 x 937","true","","5","41","10","11","1","26","1"
"null","img/Clipboard.png","null","image-keyboard-response","180","143321","0.0-15.0-0.42","Mozilla/5.0 (Windows NT 10.0; Win64; x64) AppleWebKit/537.36 (KHTML, like Gecko) Chrome/91.0.4472.114 Safari/537.36 Edg/91.0.864.59","W1920,H1080","1770 x 937","true","","5","42","11","11","0","31","0"
"1482.4000000357628","img/Clipboard.png","38","image-keyboard-response","181","144806","0.0-16.0-0.0","Mozilla/5.0 (Windows NT 10.0; Win64; x64) AppleWebKit/537.36 (KHTML, like Gecko) Chrome/91.0.4472.114 Safari/537.36 Edg/91.0.864.59","W1920,H1080","1770 x 937","true","","","","","","","",""
"627.1999999880791","img/Clipboard.png","40","image-keyboard-response","182","145436","0.0-17.0-0.0","Mozilla/5.0 (Windows NT 10.0; Win64; x64) AppleWebKit/537.36 (KHTML, like Gecko) Chrome/91.0.4472.114 Safari/537.36 Edg/91.0.864.59","W1920,H1080","1770 x 937","true","","6","0","11","3","0","31","0"
"537.4000000357628","img/Fryingpan.png","40","image-keyboard-response","183","145975","0.0-17.0-0.1","Mozilla/5.0 (Windows NT 10.0; Win64; x64) AppleWebKit/537.36 (KHTML, like Gecko) Chrome/91.0.4472.114 Safari/537.36 Edg/91.0.864.59","W1920,H1080","1770 x 937","true","","6","1","12","3","0","31","0"
"478.5","img/Clipboard.png","40","image-keyboard-response","184","146455","0.0-17.0-0.2","Mozilla/5.0 (Windows NT 10.0; Win64; x64) AppleWebKit/537.36 (KHTML, like Gecko) Chrome/91.0.4472.114 Safari/537.36 Edg/91.0.864.59","W1920,H1080","1770 x 937","true","","6","2","11","3","0","31","0"
"489.10000002384186","img/Mug.png","40","image-keyboard-response","185","146946","0.0-17.0-0.3","Mozilla/5.0 (Windows NT 10.0; Win64; x64) AppleWebKit/537.36 (KHTML, like Gecko) Chrome/91.0.4472.114 Safari/537.36 Edg/91.0.864.59","W1920,H1080","1770 x 937","true","","6","3","14","3","0","31","0"
"487.80000001192093","img/Fryingpan.png","40","image-keyboard-response","186","147436","0.0-17.0-0.4","Mozilla/5.0 (Windows NT 10.0; Win64; x64) AppleWebKit/537.36 (KHTML, like Gecko) Chrome/91.0.4472.114 Safari/537.36 Edg/91.0.864.59","W1920,H1080","1770 x 937","true","","6","4","12","3","0","31","0"
"487.80000001192093","img/Clipboard.png","40","image-keyboard-response","187","147926","0.0-17.0-0.5","Mozilla/5.0 (Windows NT 10.0; Win64; x64) AppleWebKit/537.36 (KHTML, like Gecko) Chrome/91.0.4472.114 Safari/537.36 Edg/91.0.864.59","W1920,H1080","1770 x 937","true","","6","5","11","3","0","31","0"
"457.69999998807907","img/Fryingpan.png","40","image-keyboard-response","188","148386","0.0-17.0-0.6","Mozilla/5.0 (Windows NT 10.0; Win64; x64) AppleWebKit/537.36 (KHTML, like Gecko) Chrome/91.0.4472.114 Safari/537.36 Edg/91.0.864.59","W1920,H1080","1770 x 937","true","","6","6","12","3","0","31","0"
"697.2000000476837","img/Ovenmitt.png","40","image-keyboard-response","189","149086","0.0-17.0-0.7","Mozilla/5.0 (Windows NT 10.0; Win64; x64) AppleWebKit/537.36 (KHTML, like Gecko) Chrome/91.0.4472.114 Safari/537.36 Edg/91.0.864.59","W1920,H1080","1770 x 937","true","","6","7","10","3","0","31","0"
"467.30000001192093","img/Fryingpan.png","40","image-keyboard-response","190","149556","0.0-17.0-0.8","Mozilla/5.0 (Windows NT 10.0; Win64; x64) AppleWebKit/537.36 (KHTML, like Gecko) Chrome/91.0.4472.114 Safari/537.36 Edg/91.0.864.59","W1920,H1080","1770 x 937","true","","6","8","12","3","0","31","0"
"518","img/Ovenmitt.png","40","image-keyboard-response","191","150076","0.0-17.0-0.9","Mozilla/5.0 (Windows NT 10.0; Win64; x64) AppleWebKit/537.36 (KHTML, like Gecko) Chrome/91.0.4472.114 Safari/537.36 Edg/91.0.864.59","W1920,H1080","1770 x 937","true","","6","9","10","3","0","31","0"
"458","img/Fryingpan.png","40","image-keyboard-response","192","150536","0.0-17.0-0.10","Mozilla/5.0 (Windows NT 10.0; Win64; x64) AppleWebKit/537.36 (KHTML, like Gecko) Chrome/91.0.4472.114 Safari/537.36 Edg/91.0.864.59","W1920,H1080","1770 x 937","true","","6","10","12","3","0","31","0"
"555.6000000238419","img/Mug.png","40","image-keyboard-response","193","151094","0.0-17.0-0.11","Mozilla/5.0 (Windows NT 10.0; Win64; x64) AppleWebKit/537.36 (KHTML, like Gecko) Chrome/91.0.4472.114 Safari/537.36 Edg/91.0.864.59","W1920,H1080","1770 x 937","true","","6","11","14","3","0","31","0"
"519.6000000238419","img/Clipboard.png","40","image-keyboard-response","194","151615","0.0-17.0-0.12","Mozilla/5.0 (Windows NT 10.0; Win64; x64) AppleWebKit/537.36 (KHTML, like Gecko) Chrome/91.0.4472.114 Safari/537.36 Edg/91.0.864.59","W1920,H1080","1770 x 937","true","","6","12","11","3","0","31","0"
"469.10000002384186","img/Fryingpan.png","40","image-keyboard-response","195","152086","0.0-17.0-0.13","Mozilla/5.0 (Windows NT 10.0; Win64; x64) AppleWebKit/537.36 (KHTML, like Gecko) Chrome/91.0.4472.114 Safari/537.36 Edg/91.0.864.59","W1920,H1080","1770 x 937","true","","6","13","12","3","0","31","0"
"466.5","img/Ovenmitt.png","40","image-keyboard-response","196","152554","0.0-17.0-0.14","Mozilla/5.0 (Windows NT 10.0; Win64; x64) AppleWebKit/537.36 (KHTML, like Gecko) Chrome/91.0.4472.114 Safari/537.36 Edg/91.0.864.59","W1920,H1080","1770 x 937","true","","6","14","10","3","0","31","0"
"758.8000000119209","img/Toaster.png","40","image-keyboard-response","197","153314","0.0-17.0-0.15","Mozilla/5.0 (Windows NT 10.0; Win64; x64) AppleWebKit/537.36 (KHTML, like Gecko) Chrome/91.0.4472.114 Safari/537.36 Edg/91.0.864.59","W1920,H1080","1770 x 937","true","","6","15","13","3","0","31","0"
"510","img/Mug.png","40","image-keyboard-response","198","153825","0.0-17.0-0.16","Mozilla/5.0 (Windows NT 10.0; Win64; x64) AppleWebKit/537.36 (KHTML, like Gecko) Chrome/91.0.4472.114 Safari/537.36 Edg/91.0.864.59","W1920,H1080","1770 x 937","true","","6","16","14","3","0","31","0"
"478.69999998807907","img/Clipboard.png","40","image-keyboard-response","199","154306","0.0-17.0-0.17","Mozilla/5.0 (Windows NT 10.0; Win64; x64) AppleWebKit/537.36 (KHTML, like Gecko) Chrome/91.0.4472.114 Safari/537.36 Edg/91.0.864.59","W1920,H1080","1770 x 937","true","","6","17","11","3","0","31","0"
"477.5","img/Fryingpan.png","40","image-keyboard-response","200","154786","0.0-17.0-0.18","Mozilla/5.0 (Windows NT 10.0; Win64; x64) AppleWebKit/537.36 (KHTML, like Gecko) Chrome/91.0.4472.114 Safari/537.36 Edg/91.0.864.59","W1920,H1080","1770 x 937","true","","6","18","12","3","0","31","0"
"497.4000000357628","img/Ovenmitt.png","40","image-keyboard-response","201","155286","0.0-17.0-0.19","Mozilla/5.0 (Windows NT 10.0; Win64; x64) AppleWebKit/537.36 (KHTML, like Gecko) Chrome/91.0.4472.114 Safari/537.36 Edg/91.0.864.59","W1920,H1080","1770 x 937","true","","6","19","10","3","0","31","0"
"526.3999999761581","img/Soapdispenser.png","40","image-keyboard-response","202","155816","0.0-17.0-0.20","Mozilla/5.0 (Windows NT 10.0; Win64; x64) AppleWebKit/537.36 (KHTML, like Gecko) Chrome/91.0.4472.114 Safari/537.36 Edg/91.0.864.59","W1920,H1080","1770 x 937","true","","6","20","9","3","0","31","0"
"487.80000001192093","img/Basket.png","40","image-keyboard-response","203","156306","0.0-17.0-0.21","Mozilla/5.0 (Windows NT 10.0; Win64; x64) AppleWebKit/537.36 (KHTML, like Gecko) Chrome/91.0.4472.114 Safari/537.36 Edg/91.0.864.59","W1920,H1080","1770 x 937","true","","6","21","6","3","0","31","0"
"458.4000000357628","img/Floppy.png","40","image-keyboard-response","204","156766","0.0-17.0-0.22","Mozilla/5.0 (Windows NT 10.0; Win64; x64) AppleWebKit/537.36 (KHTML, like Gecko) Chrome/91.0.4472.114 Safari/537.36 Edg/91.0.864.59","W1920,H1080","1770 x 937","true","","6","22","7","3","0","31","0"
"487.0999999642372","img/Cap.png","40","image-keyboard-response","205","157256","0.0-17.0-0.23","Mozilla/5.0 (Windows NT 10.0; Win64; x64) AppleWebKit/537.36 (KHTML, like Gecko) Chrome/91.0.4472.114 Safari/537.36 Edg/91.0.864.59","W1920,H1080","1770 x 937","true","","6","23","8","3","0","31","0"
"647.1999999880791","img/Soapdispenser.png","40","image-keyboard-response","206","157906","0.0-17.0-0.24","Mozilla/5.0 (Windows NT 10.0; Win64; x64) AppleWebKit/537.36 (KHTML, like Gecko) Chrome/91.0.4472.114 Safari/537.36 Edg/91.0.864.59","W1920,H1080","1770 x 937","true","","6","24","9","3","0","31","0"
"466.69999998807907","img/Floppy.png","40","image-keyboard-response","207","158375","0.0-17.0-0.25","Mozilla/5.0 (Windows NT 10.0; Win64; x64) AppleWebKit/537.36 (KHTML, like Gecko) Chrome/91.0.4472.114 Safari/537.36 Edg/91.0.864.59","W1920,H1080","1770 x 937","true","","6","25","7","3","0","31","0"
"470","img/Cap.png","40","image-keyboard-response","208","158846","0.0-17.0-0.26","Mozilla/5.0 (Windows NT 10.0; Win64; x64) AppleWebKit/537.36 (KHTML, like Gecko) Chrome/91.0.4472.114 Safari/537.36 Edg/91.0.864.59","W1920,H1080","1770 x 937","true","","6","26","8","3","0","31","0"
"506.30000001192093","img/Soapdispenser.png","40","image-keyboard-response","209","159355","0.0-17.0-0.27","Mozilla/5.0 (Windows NT 10.0; Win64; x64) AppleWebKit/537.36 (KHTML, like Gecko) Chrome/91.0.4472.114 Safari/537.36 Edg/91.0.864.59","W1920,H1080","1770 x 937","true","","6","27","9","3","0","31","0"
"579.9000000357628","img/Basket.png","40","image-keyboard-response","210","159936","0.0-17.0-0.28","Mozilla/5.0 (Windows NT 10.0; Win64; x64) AppleWebKit/537.36 (KHTML, like Gecko) Chrome/91.0.4472.114 Safari/537.36 Edg/91.0.864.59","W1920,H1080","1770 x 937","true","","6","28","6","3","0","31","0"
"477.80000001192093","img/Floppy.png","40","image-keyboard-response","211","160416","0.0-17.0-0.29","Mozilla/5.0 (Windows NT 10.0; Win64; x64) AppleWebKit/537.36 (KHTML, like Gecko) Chrome/91.0.4472.114 Safari/537.36 Edg/91.0.864.59","W1920,H1080","1770 x 937","true","","6","29","7","3","0","31","0"
"457.69999998807907","img/Soapdispenser.png","40","image-keyboard-response","212","160876","0.0-17.0-0.30","Mozilla/5.0 (Windows NT 10.0; Win64; x64) AppleWebKit/537.36 (KHTML, like Gecko) Chrome/91.0.4472.114 Safari/537.36 Edg/91.0.864.59","W1920,H1080","1770 x 937","true","","6","30","9","3","0","31","0"
"446.69999998807907","img/Ovenmitt.png","40","image-keyboard-response","213","161325","0.0-17.0-0.31","Mozilla/5.0 (Windows NT 10.0; Win64; x64) AppleWebKit/537.36 (KHTML, like Gecko) Chrome/91.0.4472.114 Safari/537.36 Edg/91.0.864.59","W1920,H1080","1770 x 937","true","","6","31","10","3","0","31","0"
"477.80000001192093","img/Clipboard.png","40","image-keyboard-response","214","161806","0.0-17.0-0.32","Mozilla/5.0 (Windows NT 10.0; Win64; x64) AppleWebKit/537.36 (KHTML, like Gecko) Chrome/91.0.4472.114 Safari/537.36 Edg/91.0.864.59","W1920,H1080","1770 x 937","true","","6","32","11","3","0","31","0"
"847.8000000119209","img/Toaster.png","40","image-keyboard-response","215","162656","0.0-17.0-0.33","Mozilla/5.0 (Windows NT 10.0; Win64; x64) AppleWebKit/537.36 (KHTML, like Gecko) Chrome/91.0.4472.114 Safari/537.36 Edg/91.0.864.59","W1920,H1080","1770 x 937","true","","6","33","13","3","0","31","0"
"717.6000000238419","img/Ovenmitt.png","39","image-keyboard-response","216","163376","0.0-17.0-0.34","Mozilla/5.0 (Windows NT 10.0; Win64; x64) AppleWebKit/537.36 (KHTML, like Gecko) Chrome/91.0.4472.114 Safari/537.36 Edg/91.0.864.59","W1920,H1080","1770 x 937","true","","6","34","10","3","1","30","1"
"1887.199999988079","img/Fryingpan.png","39","image-keyboard-response","217","165266","0.0-17.0-0.35","Mozilla/5.0 (Windows NT 10.0; Win64; x64) AppleWebKit/537.36 (KHTML, like Gecko) Chrome/91.0.4472.114 Safari/537.36 Edg/91.0.864.59","W1920,H1080","1770 x 937","true","","6","35","12","3","1","28","2"
"746.1000000238419","img/Toaster.png","39","image-keyboard-response","218","166014","0.0-17.0-0.36","Mozilla/5.0 (Windows NT 10.0; Win64; x64) AppleWebKit/537.36 (KHTML, like Gecko) Chrome/91.0.4472.114 Safari/537.36 Edg/91.0.864.59","W1920,H1080","1770 x 937","true","","6","36","13","3","1","25","3"
"620.8000000119209","img/Mug.png","39","image-keyboard-response","219","166636","0.0-17.0-0.37","Mozilla/5.0 (Windows NT 10.0; Win64; x64) AppleWebKit/537.36 (KHTML, like Gecko) Chrome/91.0.4472.114 Safari/537.36 Edg/91.0.864.59","W1920,H1080","1770 x 937","true","","6","37","14","3","1","21","4"
"597.1000000238419","img/Clipboard.png","37","image-keyboard-response","220","167235","0.0-17.0-0.38","Mozilla/5.0 (Windows NT 10.0; Win64; x64) AppleWebKit/537.36 (KHTML, like Gecko) Chrome/91.0.4472.114 Safari/537.36 Edg/91.0.864.59","W1920,H1080","1770 x 937","true","","6","38","11","3","-1","18","3"
"378.89999997615814","img/Ovenmitt.png","37","image-keyboard-response","221","167615","0.0-17.0-0.39","Mozilla/5.0 (Windows NT 10.0; Win64; x64) AppleWebKit/537.36 (KHTML, like Gecko) Chrome/91.0.4472.114 Safari/537.36 Edg/91.0.864.59","W1920,H1080","1770 x 937","true","","6","39","10","3","-1","16","2"
"360.19999998807907","img/Toaster.png","37","image-keyboard-response","222","167976","0.0-17.0-0.40","Mozilla/5.0 (Windows NT 10.0; Win64; x64) AppleWebKit/537.36 (KHTML, like Gecko) Chrome/91.0.4472.114 Safari/537.36 Edg/91.0.864.59","W1920,H1080","1770 x 937","true","","6","40","13","3","-1","15","1"
"927.0999999642372","img/Mug.png","37","image-keyboard-response","223","168905","0.0-17.0-0.41","Mozilla/5.0 (Windows NT 10.0; Win64; x64) AppleWebKit/537.36 (KHTML, like Gecko) Chrome/91.0.4472.114 Safari/537.36 Edg/91.0.864.59","W1920,H1080","1770 x 937","true","","6","41","14","3","-1","15","0"
"758.3000000119209","img/Lightbulb.png","39","image-keyboard-response","224","169666","0.0-17.0-0.42","Mozilla/5.0 (Windows NT 10.0; Win64; x64) AppleWebKit/537.36 (KHTML, like Gecko) Chrome/91.0.4472.114 Safari/537.36 Edg/91.0.864.59","W1920,H1080","1770 x 937","true","","6","42","0","3","1","14","1"
"null","img/Balloon.png","null","image-keyboard-response","225","169671","0.0-17.0-0.43","Mozilla/5.0 (Windows NT 10.0; Win64; x64) AppleWebKit/537.36 (KHTML, like Gecko) Chrome/91.0.4472.114 Safari/537.36 Edg/91.0.864.59","W1920,H1080","1770 x 937","true","","6","43","3","3","0","19","0"
"1932.3999999761581","img/Balloon.png","38","image-keyboard-response","226","171605","0.0-18.0-0.0","Mozilla/5.0 (Windows NT 10.0; Win64; x64) AppleWebKit/537.36 (KHTML, like Gecko) Chrome/91.0.4472.114 Safari/537.36 Edg/91.0.864.59","W1920,H1080","1770 x 937","true","","","","","","","",""
"697.3000000119209","img/Balloon.png","40","image-keyboard-response","227","172305","0.0-19.0-0.0","Mozilla/5.0 (Windows NT 10.0; Win64; x64) AppleWebKit/537.36 (KHTML, like Gecko) Chrome/91.0.4472.114 Safari/537.36 Edg/91.0.864.59","W1920,H1080","1770 x 937","true","","7","0","3","12","0","19","0"
"537.4000000357628","img/Boot.png","40","image-keyboard-response","228","172844","0.0-19.0-0.1","Mozilla/5.0 (Windows NT 10.0; Win64; x64) AppleWebKit/537.36 (KHTML, like Gecko) Chrome/91.0.4472.114 Safari/537.36 Edg/91.0.864.59","W1920,H1080","1770 x 937","true","","7","1","4","12","0","19","0"
"679","img/Jar.png","40","image-keyboard-response","229","173524","0.0-19.0-0.2","Mozilla/5.0 (Windows NT 10.0; Win64; x64) AppleWebKit/537.36 (KHTML, like Gecko) Chrome/91.0.4472.114 Safari/537.36 Edg/91.0.864.59","W1920,H1080","1770 x 937","true","","7","2","5","12","0","19","0"
"1199.2999999523163","img/Boot.png","39","image-keyboard-response","230","174726","0.0-19.0-0.3","Mozilla/5.0 (Windows NT 10.0; Win64; x64) AppleWebKit/537.36 (KHTML, like Gecko) Chrome/91.0.4472.114 Safari/537.36 Edg/91.0.864.59","W1920,H1080","1770 x 937","true","","7","3","4","12","1","18","1"
"1156.3999999761581","img/Toiletpaper.png","37","image-keyboard-response","231","175884","0.0-19.0-0.4","Mozilla/5.0 (Windows NT 10.0; Win64; x64) AppleWebKit/537.36 (KHTML, like Gecko) Chrome/91.0.4472.114 Safari/537.36 Edg/91.0.864.59","W1920,H1080","1770 x 937","true","","7","4","2","12","-1","18","0"
"580.2999999523163","img/Boot.png","40","image-keyboard-response","232","176465","0.0-19.0-0.5","Mozilla/5.0 (Windows NT 10.0; Win64; x64) AppleWebKit/537.36 (KHTML, like Gecko) Chrome/91.0.4472.114 Safari/537.36 Edg/91.0.864.59","W1920,H1080","1770 x 937","true","","7","5","4","12","0","18","0"
"1418.5999999642372","img/Book.png","40","image-keyboard-response","233","177885","0.0-19.0-0.6","Mozilla/5.0 (Windows NT 10.0; Win64; x64) AppleWebKit/537.36 (KHTML, like Gecko) Chrome/91.0.4472.114 Safari/537.36 Edg/91.0.864.59","W1920,H1080","1770 x 937","true","","7","6","1","12","0","18","0"
"656.5","img/Lightbulb.png","40","image-keyboard-response","234","178544","0.0-19.0-0.7","Mozilla/5.0 (Windows NT 10.0; Win64; x64) AppleWebKit/537.36 (KHTML, like Gecko) Chrome/91.0.4472.114 Safari/537.36 Edg/91.0.864.59","W1920,H1080","1770 x 937","true","","7","7","0","12","0","18","0"
"480.4000000357628","img/Book.png","40","image-keyboard-response","235","179025","0.0-19.0-0.8","Mozilla/5.0 (Windows NT 10.0; Win64; x64) AppleWebKit/537.36 (KHTML, like Gecko) Chrome/91.0.4472.114 Safari/537.36 Edg/91.0.864.59","W1920,H1080","1770 x 937","true","","7","8","1","12","0","18","0"
"488.0999999642372","img/Boot.png","40","image-keyboard-response","236","179515","0.0-19.0-0.9","Mozilla/5.0 (Windows NT 10.0; Win64; x64) AppleWebKit/537.36 (KHTML, like Gecko) Chrome/91.0.4472.114 Safari/537.36 Edg/91.0.864.59","W1920,H1080","1770 x 937","true","","7","9","4","12","0","18","0"
"497.69999998807907","img/Balloon.png","40","image-keyboard-response","237","180015","0.0-19.0-0.10","Mozilla/5.0 (Windows NT 10.0; Win64; x64) AppleWebKit/537.36 (KHTML, like Gecko) Chrome/91.0.4472.114 Safari/537.36 Edg/91.0.864.59","W1920,H1080","1770 x 937","true","","7","10","3","12","0","18","0"
"496.5","img/Book.png","40","image-keyboard-response","238","180516","0.0-19.0-0.11","Mozilla/5.0 (Windows NT 10.0; Win64; x64) AppleWebKit/537.36 (KHTML, like Gecko) Chrome/91.0.4472.114 Safari/537.36 Edg/91.0.864.59","W1920,H1080","1770 x 937","true","","7","11","1","12","0","18","0"
"648.1000000238419","img/Boot.png","40","image-keyboard-response","239","181166","0.0-19.0-0.12","Mozilla/5.0 (Windows NT 10.0; Win64; x64) AppleWebKit/537.36 (KHTML, like Gecko) Chrome/91.0.4472.114 Safari/537.36 Edg/91.0.864.59","W1920,H1080","1770 x 937","true","","7","12","4","12","0","18","0"
"476.5","img/Toiletpaper.png","40","image-keyboard-response","240","181644","0.0-19.0-0.13","Mozilla/5.0 (Windows NT 10.0; Win64; x64) AppleWebKit/537.36 (KHTML, like Gecko) Chrome/91.0.4472.114 Safari/537.36 Edg/91.0.864.59","W1920,H1080","1770 x 937","true","","7","13","2","12","0","18","0"
"490.19999998807907","img/Boot.png","40","image-keyboard-response","241","182136","0.0-19.0-0.14","Mozilla/5.0 (Windows NT 10.0; Win64; x64) AppleWebKit/537.36 (KHTML, like Gecko) Chrome/91.0.4472.114 Safari/537.36 Edg/91.0.864.59","W1920,H1080","1770 x 937","true","","7","14","4","12","0","18","0"
"447.7000000476837","img/Toiletpaper.png","40","image-keyboard-response","242","182586","0.0-19.0-0.15","Mozilla/5.0 (Windows NT 10.0; Win64; x64) AppleWebKit/537.36 (KHTML, like Gecko) Chrome/91.0.4472.114 Safari/537.36 Edg/91.0.864.59","W1920,H1080","1770 x 937","true","","7","15","2","12","0","18","0"
"517.1999999880791","img/Lightbulb.png","40","image-keyboard-response","243","183106","0.0-19.0-0.16","Mozilla/5.0 (Windows NT 10.0; Win64; x64) AppleWebKit/537.36 (KHTML, like Gecko) Chrome/91.0.4472.114 Safari/537.36 Edg/91.0.864.59","W1920,H1080","1770 x 937","true","","7","16","0","12","0","18","0"
"486.39999997615814","img/Toiletpaper.png","40","image-keyboard-response","244","183594","0.0-19.0-0.17","Mozilla/5.0 (Windows NT 10.0; Win64; x64) AppleWebKit/537.36 (KHTML, like Gecko) Chrome/91.0.4472.114 Safari/537.36 Edg/91.0.864.59","W1920,H1080","1770 x 937","true","","7","17","2","12","0","18","0"
"470.39999997615814","img/Balloon.png","40","image-keyboard-response","245","184066","0.0-19.0-0.18","Mozilla/5.0 (Windows NT 10.0; Win64; x64) AppleWebKit/537.36 (KHTML, like Gecko) Chrome/91.0.4472.114 Safari/537.36 Edg/91.0.864.59","W1920,H1080","1770 x 937","true","","7","18","3","12","0","18","0"
"465.5","img/Book.png","40","image-keyboard-response","246","184534","0.0-19.0-0.19","Mozilla/5.0 (Windows NT 10.0; Win64; x64) AppleWebKit/537.36 (KHTML, like Gecko) Chrome/91.0.4472.114 Safari/537.36 Edg/91.0.864.59","W1920,H1080","1770 x 937","true","","7","19","1","12","0","18","0"
"479.89999997615814","img/Balloon.png","40","image-keyboard-response","247","185015","0.0-19.0-0.20","Mozilla/5.0 (Windows NT 10.0; Win64; x64) AppleWebKit/537.36 (KHTML, like Gecko) Chrome/91.0.4472.114 Safari/537.36 Edg/91.0.864.59","W1920,H1080","1770 x 937","true","","7","20","3","12","0","18","0"
"487.39999997615814","img/Lightbulb.png","40","image-keyboard-response","248","185504","0.0-19.0-0.21","Mozilla/5.0 (Windows NT 10.0; Win64; x64) AppleWebKit/537.36 (KHTML, like Gecko) Chrome/91.0.4472.114 Safari/537.36 Edg/91.0.864.59","W1920,H1080","1770 x 937","true","","7","21","0","12","0","18","0"
"670.3000000119209","img/Mug.png","40","image-keyboard-response","249","186175","0.0-19.0-0.22","Mozilla/5.0 (Windows NT 10.0; Win64; x64) AppleWebKit/537.36 (KHTML, like Gecko) Chrome/91.0.4472.114 Safari/537.36 Edg/91.0.864.59","W1920,H1080","1770 x 937","true","","7","22","14","12","0","18","0"
"null","img/Fryingpan.png","null","image-keyboard-response","250","186183","0.0-19.0-0.23","Mozilla/5.0 (Windows NT 10.0; Win64; x64) AppleWebKit/537.36 (KHTML, like Gecko) Chrome/91.0.4472.114 Safari/537.36 Edg/91.0.864.59","W1920,H1080","1770 x 937","true","","7","23","12","12","0","18","0"
"1519.699999988079","img/Fryingpan.png","38","image-keyboard-response","251","187704","0.0-20.0-0.0","Mozilla/5.0 (Windows NT 10.0; Win64; x64) AppleWebKit/537.36 (KHTML, like Gecko) Chrome/91.0.4472.114 Safari/537.36 Edg/91.0.864.59","W1920,H1080","1770 x 937","true","","","","","","","",""
"530.6999999880791","img/Fryingpan.png","40","image-keyboard-response","252","188235","0.0-21.0-0.0","Mozilla/5.0 (Windows NT 10.0; Win64; x64) AppleWebKit/537.36 (KHTML, like Gecko) Chrome/91.0.4472.114 Safari/537.36 Edg/91.0.864.59","W1920,H1080","1770 x 937","true","","8","0","12","1","0","18","0"
"766.8999999761581","img/Mug.png","40","image-keyboard-response","253","189004","0.0-21.0-0.1","Mozilla/5.0 (Windows NT 10.0; Win64; x64) AppleWebKit/537.36 (KHTML, like Gecko) Chrome/91.0.4472.114 Safari/537.36 Edg/91.0.864.59","W1920,H1080","1770 x 937","true","","8","1","14","1","0","18","0"
"700.1999999880791","img/Toaster.png","40","image-keyboard-response","254","189705","0.0-21.0-0.2","Mozilla/5.0 (Windows NT 10.0; Win64; x64) AppleWebKit/537.36 (KHTML, like Gecko) Chrome/91.0.4472.114 Safari/537.36 Edg/91.0.864.59","W1920,H1080","1770 x 937","true","","8","2","13","1","0","18","0"
"807.9000000357628","img/Clipboard.png","40","image-keyboard-response","255","190515","0.0-21.0-0.3","Mozilla/5.0 (Windows NT 10.0; Win64; x64) AppleWebKit/537.36 (KHTML, like Gecko) Chrome/91.0.4472.114 Safari/537.36 Edg/91.0.864.59","W1920,H1080","1770 x 937","true","","8","3","11","1","0","18","0"
"516.8999999761581","img/Mug.png","40","image-keyboard-response","256","191034","0.0-21.0-0.4","Mozilla/5.0 (Windows NT 10.0; Win64; x64) AppleWebKit/537.36 (KHTML, like Gecko) Chrome/91.0.4472.114 Safari/537.36 Edg/91.0.864.59","W1920,H1080","1770 x 937","true","","8","4","14","1","0","18","0"
"469.10000002384186","img/Clipboard.png","40","image-keyboard-response","257","191504","0.0-21.0-0.5","Mozilla/5.0 (Windows NT 10.0; Win64; x64) AppleWebKit/537.36 (KHTML, like Gecko) Chrome/91.0.4472.114 Safari/537.36 Edg/91.0.864.59","W1920,H1080","1770 x 937","true","","8","5","11","1","0","18","0"
"549.2000000476837","img/Fryingpan.png","40","image-keyboard-response","258","192054","0.0-21.0-0.6","Mozilla/5.0 (Windows NT 10.0; Win64; x64) AppleWebKit/537.36 (KHTML, like Gecko) Chrome/91.0.4472.114 Safari/537.36 Edg/91.0.864.59","W1920,H1080","1770 x 937","true","","8","6","12","1","0","18","0"
"678.3000000119209","img/Clipboard.png","40","image-keyboard-response","259","192733","0.0-21.0-0.7","Mozilla/5.0 (Windows NT 10.0; Win64; x64) AppleWebKit/537.36 (KHTML, like Gecko) Chrome/91.0.4472.114 Safari/537.36 Edg/91.0.864.59","W1920,H1080","1770 x 937","true","","8","7","11","1","0","18","0"
"521","img/Mug.png","40","image-keyboard-response","260","193255","0.0-21.0-0.8","Mozilla/5.0 (Windows NT 10.0; Win64; x64) AppleWebKit/537.36 (KHTML, like Gecko) Chrome/91.0.4472.114 Safari/537.36 Edg/91.0.864.59","W1920,H1080","1770 x 937","true","","8","8","14","1","0","18","0"
"707.7000000476837","img/Lightbulb.png","40","image-keyboard-response","261","193965","0.0-21.0-0.9","Mozilla/5.0 (Windows NT 10.0; Win64; x64) AppleWebKit/537.36 (KHTML, like Gecko) Chrome/91.0.4472.114 Safari/537.36 Edg/91.0.864.59","W1920,H1080","1770 x 937","true","","8","9","0","1","0","18","0"
"847.8999999761581","img/Toiletpaper.png","39","image-keyboard-response","262","194815","0.0-21.0-0.10","Mozilla/5.0 (Windows NT 10.0; Win64; x64) AppleWebKit/537.36 (KHTML, like Gecko) Chrome/91.0.4472.114 Safari/537.36 Edg/91.0.864.59","W1920,H1080","1770 x 937","true","","8","10","2","1","1","17","1"
"null","img/Book.png","null","image-keyboard-response","263","194820","0.0-21.0-0.11","Mozilla/5.0 (Windows NT 10.0; Win64; x64) AppleWebKit/537.36 (KHTML, like Gecko) Chrome/91.0.4472.114 Safari/537.36 Edg/91.0.864.59","W1920,H1080","1770 x 937","true","","8","11","1","1","0","22","0"
"1173.5","img/Book.png","38","image-keyboard-response","264","195995","0.0-22.0-0.0","Mozilla/5.0 (Windows NT 10.0; Win64; x64) AppleWebKit/537.36 (KHTML, like Gecko) Chrome/91.0.4472.114 Safari/537.36 Edg/91.0.864.59","W1920,H1080","1770 x 937","true","","","","","","","",""
"678.1999999880791","img/Book.png","40","image-keyboard-response","265","196675","0.0-23.0-0.0","Mozilla/5.0 (Windows NT 10.0; Win64; x64) AppleWebKit/537.36 (KHTML, like Gecko) Chrome/91.0.4472.114 Safari/537.36 Edg/91.0.864.59","W1920,H1080","1770 x 937","true","","9","0","1","12","0","22","0"
"567.9000000357628","img/Balloon.png","40","image-keyboard-response","266","197245","0.0-23.0-0.1","Mozilla/5.0 (Windows NT 10.0; Win64; x64) AppleWebKit/537.36 (KHTML, like Gecko) Chrome/91.0.4472.114 Safari/537.36 Edg/91.0.864.59","W1920,H1080","1770 x 937","true","","9","1","3","12","0","22","0"
"658","img/Boot.png","40","image-keyboard-response","267","197905","0.0-23.0-0.2","Mozilla/5.0 (Windows NT 10.0; Win64; x64) AppleWebKit/537.36 (KHTML, like Gecko) Chrome/91.0.4472.114 Safari/537.36 Edg/91.0.864.59","W1920,H1080","1770 x 937","true","","9","2","4","12","0","22","0"
"516.8999999761581","img/Balloon.png","40","image-keyboard-response","268","198424","0.0-23.0-0.3","Mozilla/5.0 (Windows NT 10.0; Win64; x64) AppleWebKit/537.36 (KHTML, like Gecko) Chrome/91.0.4472.114 Safari/537.36 Edg/91.0.864.59","W1920,H1080","1770 x 937","true","","9","3","3","12","0","22","0"
"559.6000000238419","img/Book.png","40","image-keyboard-response","269","198985","0.0-23.0-0.4","Mozilla/5.0 (Windows NT 10.0; Win64; x64) AppleWebKit/537.36 (KHTML, like Gecko) Chrome/91.0.4472.114 Safari/537.36 Edg/91.0.864.59","W1920,H1080","1770 x 937","true","","9","4","1","12","0","22","0"
"487.69999998807907","img/Lightbulb.png","40","image-keyboard-response","270","199475","0.0-23.0-0.5","Mozilla/5.0 (Windows NT 10.0; Win64; x64) AppleWebKit/537.36 (KHTML, like Gecko) Chrome/91.0.4472.114 Safari/537.36 Edg/91.0.864.59","W1920,H1080","1770 x 937","true","","9","5","0","12","0","22","0"
"457.2000000476837","img/Book.png","40","image-keyboard-response","271","199934","0.0-23.0-0.6","Mozilla/5.0 (Windows NT 10.0; Win64; x64) AppleWebKit/537.36 (KHTML, like Gecko) Chrome/91.0.4472.114 Safari/537.36 Edg/91.0.864.59","W1920,H1080","1770 x 937","true","","9","6","1","12","0","22","0"
"469.89999997615814","img/Toiletpaper.png","40","image-keyboard-response","272","200405","0.0-23.0-0.7","Mozilla/5.0 (Windows NT 10.0; Win64; x64) AppleWebKit/537.36 (KHTML, like Gecko) Chrome/91.0.4472.114 Safari/537.36 Edg/91.0.864.59","W1920,H1080","1770 x 937","true","","9","7","2","12","0","22","0"
"517.1000000238419","img/Balloon.png","40","image-keyboard-response","273","200924","0.0-23.0-0.8","Mozilla/5.0 (Windows NT 10.0; Win64; x64) AppleWebKit/537.36 (KHTML, like Gecko) Chrome/91.0.4472.114 Safari/537.36 Edg/91.0.864.59","W1920,H1080","1770 x 937","true","","9","8","3","12","0","22","0"
"549.5999999642372","img/Toiletpaper.png","40","image-keyboard-response","274","201475","0.0-23.0-0.9","Mozilla/5.0 (Windows NT 10.0; Win64; x64) AppleWebKit/537.36 (KHTML, like Gecko) Chrome/91.0.4472.114 Safari/537.36 Edg/91.0.864.59","W1920,H1080","1770 x 937","true","","9","9","2","12","0","22","0"
"626.8999999761581","img/Boot.png","40","image-keyboard-response","275","202104","0.0-23.0-0.10","Mozilla/5.0 (Windows NT 10.0; Win64; x64) AppleWebKit/537.36 (KHTML, like Gecko) Chrome/91.0.4472.114 Safari/537.36 Edg/91.0.864.59","W1920,H1080","1770 x 937","true","","9","10","4","12","0","22","0"
"1049.1000000238419","img/Balloon.png","39","image-keyboard-response","276","203154","0.0-23.0-0.11","Mozilla/5.0 (Windows NT 10.0; Win64; x64) AppleWebKit/537.36 (KHTML, like Gecko) Chrome/91.0.4472.114 Safari/537.36 Edg/91.0.864.59","W1920,H1080","1770 x 937","true","","9","11","3","12","1","21","1"
"580.1999999880791","img/Lightbulb.png","39","image-keyboard-response","277","203735","0.0-23.0-0.12","Mozilla/5.0 (Windows NT 10.0; Win64; x64) AppleWebKit/537.36 (KHTML, like Gecko) Chrome/91.0.4472.114 Safari/537.36 Edg/91.0.864.59","W1920,H1080","1770 x 937","true","","9","12","0","12","1","19","2"
"708.5","img/Mug.png","37","image-keyboard-response","278","204446","0.0-23.0-0.13","Mozilla/5.0 (Windows NT 10.0; Win64; x64) AppleWebKit/537.36 (KHTML, like Gecko) Chrome/91.0.4472.114 Safari/537.36 Edg/91.0.864.59","W1920,H1080","1770 x 937","true","","9","13","14","12","-1","18","1"
"436.5999999642372","img/Lightbulb.png","37","image-keyboard-response","279","204884","0.0-23.0-0.14","Mozilla/5.0 (Windows NT 10.0; Win64; x64) AppleWebKit/537.36 (KHTML, like Gecko) Chrome/91.0.4472.114 Safari/537.36 Edg/91.0.864.59","W1920,H1080","1770 x 937","true","","9","14","0","12","-1","18","0"
"639.7999999523163","img/Balloon.png","40","image-keyboard-response","280","205525","0.0-23.0-0.15","Mozilla/5.0 (Windows NT 10.0; Win64; x64) AppleWebKit/537.36 (KHTML, like Gecko) Chrome/91.0.4472.114 Safari/537.36 Edg/91.0.864.59","W1920,H1080","1770 x 937","true","","9","15","3","12","0","18","0"
"608","img/Lightbulb.png","40","image-keyboard-response","281","206135","0.0-23.0-0.16","Mozilla/5.0 (Windows NT 10.0; Win64; x64) AppleWebKit/537.36 (KHTML, like Gecko) Chrome/91.0.4472.114 Safari/537.36 Edg/91.0.864.59","W1920,H1080","1770 x 937","true","","9","16","0","12","0","18","0"
"518.3000000119209","img/Mug.png","40","image-keyboard-response","282","206655","0.0-23.0-0.17","Mozilla/5.0 (Windows NT 10.0; Win64; x64) AppleWebKit/537.36 (KHTML, like Gecko) Chrome/91.0.4472.114 Safari/537.36 Edg/91.0.864.59","W1920,H1080","1770 x 937","true","","9","17","14","12","0","18","0"
"596.8000000119209","img/Clipboard.png","40","image-keyboard-response","283","207255","0.0-23.0-0.18","Mozilla/5.0 (Windows NT 10.0; Win64; x64) AppleWebKit/537.36 (KHTML, like Gecko) Chrome/91.0.4472.114 Safari/537.36 Edg/91.0.864.59","W1920,H1080","1770 x 937","true","","9","18","11","12","0","18","0"
"1276.199999988079","img/Toaster.png","39","image-keyboard-response","284","208535","0.0-23.0-0.19","Mozilla/5.0 (Windows NT 10.0; Win64; x64) AppleWebKit/537.36 (KHTML, like Gecko) Chrome/91.0.4472.114 Safari/537.36 Edg/91.0.864.59","W1920,H1080","1770 x 937","true","","9","19","13","12","1","17","1"
"1117.300000011921","img/Ovenmitt.png","39","image-keyboard-response","285","209655","0.0-23.0-0.20","Mozilla/5.0 (Windows NT 10.0; Win64; x64) AppleWebKit/537.36 (KHTML, like Gecko) Chrome/91.0.4472.114 Safari/537.36 Edg/91.0.864.59","W1920,H1080","1770 x 937","true","","9","20","10","12","1","15","2"
"829.3999999761581","img/Clipboard.png","37","image-keyboard-response","286","210485","0.0-23.0-0.21","Mozilla/5.0 (Windows NT 10.0; Win64; x64) AppleWebKit/537.36 (KHTML, like Gecko) Chrome/91.0.4472.114 Safari/537.36 Edg/91.0.864.59","W1920,H1080","1770 x 937","true","","9","21","11","12","-1","14","1"
"437.30000001192093","img/Ovenmitt.png","37","image-keyboard-response","287","210924","0.0-23.0-0.22","Mozilla/5.0 (Windows NT 10.0; Win64; x64) AppleWebKit/537.36 (KHTML, like Gecko) Chrome/91.0.4472.114 Safari/537.36 Edg/91.0.864.59","W1920,H1080","1770 x 937","true","","9","22","10","12","-1","14","0"
"438.5","img/Clipboard.png","40","image-keyboard-response","288","211365","0.0-23.0-0.23","Mozilla/5.0 (Windows NT 10.0; Win64; x64) AppleWebKit/537.36 (KHTML, like Gecko) Chrome/91.0.4472.114 Safari/537.36 Edg/91.0.864.59","W1920,H1080","1770 x 937","true","","9","23","11","12","0","14","0"
"557.7999999523163","img/Mug.png","40","image-keyboard-response","289","211925","0.0-23.0-0.24","Mozilla/5.0 (Windows NT 10.0; Win64; x64) AppleWebKit/537.36 (KHTML, like Gecko) Chrome/91.0.4472.114 Safari/537.36 Edg/91.0.864.59","W1920,H1080","1770 x 937","true","","9","24","14","12","0","14","0"
"468.39999997615814","img/Clipboard.png","40","image-keyboard-response","290","212395","0.0-23.0-0.25","Mozilla/5.0 (Windows NT 10.0; Win64; x64) AppleWebKit/537.36 (KHTML, like Gecko) Chrome/91.0.4472.114 Safari/537.36 Edg/91.0.864.59","W1920,H1080","1770 x 937","true","","9","25","11","12","0","14","0"
"467.80000001192093","img/Ovenmitt.png","40","image-keyboard-response","291","212865","0.0-23.0-0.26","Mozilla/5.0 (Windows NT 10.0; Win64; x64) AppleWebKit/537.36 (KHTML, like Gecko) Chrome/91.0.4472.114 Safari/537.36 Edg/91.0.864.59","W1920,H1080","1770 x 937","true","","9","26","10","12","0","14","0"
"null","img/Fryingpan.png","null","image-keyboard-response","292","212873","0.0-23.0-0.27","Mozilla/5.0 (Windows NT 10.0; Win64; x64) AppleWebKit/537.36 (KHTML, like Gecko) Chrome/91.0.4472.114 Safari/537.36 Edg/91.0.864.59","W1920,H1080","1770 x 937","true","","9","27","12","12","0","14","0"
"1931.1000000238419","img/Fryingpan.png","38","image-keyboard-response","293","214805","0.0-24.0-0.0","Mozilla/5.0 (Windows NT 10.0; Win64; x64) AppleWebKit/537.36 (KHTML, like Gecko) Chrome/91.0.4472.114 Safari/537.36 Edg/91.0.864.59","W1920,H1080","1770 x 937","true","","","","","","","",""
"506.89999997615814","img/Fryingpan.png","40","image-keyboard-response","294","215314","0.0-25.0-0.0","Mozilla/5.0 (Windows NT 10.0; Win64; x64) AppleWebKit/537.36 (KHTML, like Gecko) Chrome/91.0.4472.114 Safari/537.36 Edg/91.0.864.59","W1920,H1080","1770 x 937","true","","10","0","12","2","0","14","0"
"559.1999999880791","img/Mug.png","40","image-keyboard-response","295","215874","0.0-25.0-0.1","Mozilla/5.0 (Windows NT 10.0; Win64; x64) AppleWebKit/537.36 (KHTML, like Gecko) Chrome/91.0.4472.114 Safari/537.36 Edg/91.0.864.59","W1920,H1080","1770 x 937","true","","10","1","14","2","0","14","0"
"608.6999999880791","img/Lightbulb.png","40","image-keyboard-response","296","216484","0.0-25.0-0.2","Mozilla/5.0 (Windows NT 10.0; Win64; x64) AppleWebKit/537.36 (KHTML, like Gecko) Chrome/91.0.4472.114 Safari/537.36 Edg/91.0.864.59","W1920,H1080","1770 x 937","true","","10","2","0","2","0","14","0"
"null","img/Toiletpaper.png","null","image-keyboard-response","297","216487","0.0-25.0-0.3","Mozilla/5.0 (Windows NT 10.0; Win64; x64) AppleWebKit/537.36 (KHTML, like Gecko) Chrome/91.0.4472.114 Safari/537.36 Edg/91.0.864.59","W1920,H1080","1770 x 937","true","","10","3","2","2","0","14","0"
"1387.0999999642372","img/Toiletpaper.png","38","image-keyboard-response","298","217875","0.0-26.0-0.0","Mozilla/5.0 (Windows NT 10.0; Win64; x64) AppleWebKit/537.36 (KHTML, like Gecko) Chrome/91.0.4472.114 Safari/537.36 Edg/91.0.864.59","W1920,H1080","1770 x 937","true","","","","","","","",""
"988.2000000476837","img/Toiletpaper.png","40","image-keyboard-response","299","218865","0.0-27.0-0.0","Mozilla/5.0 (Windows NT 10.0; Win64; x64) AppleWebKit/537.36 (KHTML, like Gecko) Chrome/91.0.4472.114 Safari/537.36 Edg/91.0.864.59","W1920,H1080","1770 x 937","true","","11","0","2","10","0","14","0"
"538.3000000119209","img/Boot.png","40","image-keyboard-response","300","219405","0.0-27.0-0.1","Mozilla/5.0 (Windows NT 10.0; Win64; x64) AppleWebKit/537.36 (KHTML, like Gecko) Chrome/91.0.4472.114 Safari/537.36 Edg/91.0.864.59","W1920,H1080","1770 x 937","true","","11","1","4","10","0","14","0"
"556.7999999523163","img/Jar.png","40","image-keyboard-response","301","219964","0.0-27.0-0.2","Mozilla/5.0 (Windows NT 10.0; Win64; x64) AppleWebKit/537.36 (KHTML, like Gecko) Chrome/91.0.4472.114 Safari/537.36 Edg/91.0.864.59","W1920,H1080","1770 x 937","true","","11","2","5","10","0","14","0"
"500","img/Floppy.png","40","image-keyboard-response","302","220465","0.0-27.0-0.3","Mozilla/5.0 (Windows NT 10.0; Win64; x64) AppleWebKit/537.36 (KHTML, like Gecko) Chrome/91.0.4472.114 Safari/537.36 Edg/91.0.864.59","W1920,H1080","1770 x 937","true","","11","3","7","10","0","14","0"
"456.69999998807907","img/Basket.png","40","image-keyboard-response","303","220924","0.0-27.0-0.4","Mozilla/5.0 (Windows NT 10.0; Win64; x64) AppleWebKit/537.36 (KHTML, like Gecko) Chrome/91.0.4472.114 Safari/537.36 Edg/91.0.864.59","W1920,H1080","1770 x 937","true","","11","4","6","10","0","14","0"
"479.7999999523163","img/Floppy.png","40","image-keyboard-response","304","221404","0.0-27.0-0.5","Mozilla/5.0 (Windows NT 10.0; Win64; x64) AppleWebKit/537.36 (KHTML, like Gecko) Chrome/91.0.4472.114 Safari/537.36 Edg/91.0.864.59","W1920,H1080","1770 x 937","true","","11","5","7","10","0","14","0"
"458.30000001192093","img/Cap.png","40","image-keyboard-response","305","221864","0.0-27.0-0.6","Mozilla/5.0 (Windows NT 10.0; Win64; x64) AppleWebKit/537.36 (KHTML, like Gecko) Chrome/91.0.4472.114 Safari/537.36 Edg/91.0.864.59","W1920,H1080","1770 x 937","true","","11","6","8","10","0","14","0"
"449.2999999523163","img/Floppy.png","40","image-keyboard-response","306","222315","0.0-27.0-0.7","Mozilla/5.0 (Windows NT 10.0; Win64; x64) AppleWebKit/537.36 (KHTML, like Gecko) Chrome/91.0.4472.114 Safari/537.36 Edg/91.0.864.59","W1920,H1080","1770 x 937","true","","11","7","7","10","0","14","0"
"518.1000000238419","img/Soapdispenser.png","40","image-keyboard-response","307","222835","0.0-27.0-0.8","Mozilla/5.0 (Windows NT 10.0; Win64; x64) AppleWebKit/537.36 (KHTML, like Gecko) Chrome/91.0.4472.114 Safari/537.36 Edg/91.0.864.59","W1920,H1080","1770 x 937","true","","11","8","9","10","0","14","0"
"536.3000000119209","img/Basket.png","40","image-keyboard-response","308","223373","0.0-27.0-0.9","Mozilla/5.0 (Windows NT 10.0; Win64; x64) AppleWebKit/537.36 (KHTML, like Gecko) Chrome/91.0.4472.114 Safari/537.36 Edg/91.0.864.59","W1920,H1080","1770 x 937","true","","11","9","6","10","0","14","0"
"480.5","img/Jar.png","40","image-keyboard-response","309","223855","0.0-27.0-0.10","Mozilla/5.0 (Windows NT 10.0; Win64; x64) AppleWebKit/537.36 (KHTML, like Gecko) Chrome/91.0.4472.114 Safari/537.36 Edg/91.0.864.59","W1920,H1080","1770 x 937","true","","11","10","5","10","0","14","0"
"548","img/Floppy.png","40","image-keyboard-response","310","224406","0.0-27.0-0.11","Mozilla/5.0 (Windows NT 10.0; Win64; x64) AppleWebKit/537.36 (KHTML, like Gecko) Chrome/91.0.4472.114 Safari/537.36 Edg/91.0.864.59","W1920,H1080","1770 x 937","true","","11","11","7","10","0","14","0"
"847.6000000238419","img/Cap.png","40","image-keyboard-response","311","225255","0.0-27.0-0.12","Mozilla/5.0 (Windows NT 10.0; Win64; x64) AppleWebKit/537.36 (KHTML, like Gecko) Chrome/91.0.4472.114 Safari/537.36 Edg/91.0.864.59","W1920,H1080","1770 x 937","true","","11","12","8","10","0","14","0"
"538.8999999761581","img/Basket.png","40","image-keyboard-response","312","225795","0.0-27.0-0.13","Mozilla/5.0 (Windows NT 10.0; Win64; x64) AppleWebKit/537.36 (KHTML, like Gecko) Chrome/91.0.4472.114 Safari/537.36 Edg/91.0.864.59","W1920,H1080","1770 x 937","true","","11","13","6","10","0","14","0"
"606.5","img/Floppy.png","40","image-keyboard-response","313","226403","0.0-27.0-0.14","Mozilla/5.0 (Windows NT 10.0; Win64; x64) AppleWebKit/537.36 (KHTML, like Gecko) Chrome/91.0.4472.114 Safari/537.36 Edg/91.0.864.59","W1920,H1080","1770 x 937","true","","11","14","7","10","0","14","0"
"469.39999997615814","img/Jar.png","40","image-keyboard-response","314","226873","0.0-27.0-0.15","Mozilla/5.0 (Windows NT 10.0; Win64; x64) AppleWebKit/537.36 (KHTML, like Gecko) Chrome/91.0.4472.114 Safari/537.36 Edg/91.0.864.59","W1920,H1080","1770 x 937","true","","11","15","5","10","0","14","0"
"490.7999999523163","img/Basket.png","40","image-keyboard-response","315","227366","0.0-27.0-0.16","Mozilla/5.0 (Windows NT 10.0; Win64; x64) AppleWebKit/537.36 (KHTML, like Gecko) Chrome/91.0.4472.114 Safari/537.36 Edg/91.0.864.59","W1920,H1080","1770 x 937","true","","11","16","6","10","0","14","0"
"637.8000000119209","img/Floppy.png","40","image-keyboard-response","316","228005","0.0-27.0-0.17","Mozilla/5.0 (Windows NT 10.0; Win64; x64) AppleWebKit/537.36 (KHTML, like Gecko) Chrome/91.0.4472.114 Safari/537.36 Edg/91.0.864.59","W1920,H1080","1770 x 937","true","","11","17","7","10","0","14","0"
"747","img/Soapdispenser.png","40","image-keyboard-response","317","228754","0.0-27.0-0.18","Mozilla/5.0 (Windows NT 10.0; Win64; x64) AppleWebKit/537.36 (KHTML, like Gecko) Chrome/91.0.4472.114 Safari/537.36 Edg/91.0.864.59","W1920,H1080","1770 x 937","true","","11","18","9","10","0","14","0"
"null","img/Ovenmitt.png","null","image-keyboard-response","318","228758","0.0-27.0-0.19","Mozilla/5.0 (Windows NT 10.0; Win64; x64) AppleWebKit/537.36 (KHTML, like Gecko) Chrome/91.0.4472.114 Safari/537.36 Edg/91.0.864.59","W1920,H1080","1770 x 937","true","","11","19","10","10","0","14","0"
"4457.199999988079","img/Ovenmitt.png","38","image-keyboard-response","319","233216","0.0-28.0-0.0","Mozilla/5.0 (Windows NT 10.0; Win64; x64) AppleWebKit/537.36 (KHTML, like Gecko) Chrome/91.0.4472.114 Safari/537.36 Edg/91.0.864.59","W1920,H1080","1770 x 937","true","","","","","","","",""
"407.80000001192093","img/Ovenmitt.png","40","image-keyboard-response","320","233625","0.0-29.0-0.0","Mozilla/5.0 (Windows NT 10.0; Win64; x64) AppleWebKit/537.36 (KHTML, like Gecko) Chrome/91.0.4472.114 Safari/537.36 Edg/91.0.864.59","W1920,H1080","1770 x 937","true","","12","0","10","8","0","14","0"
"547.6999999880791","img/Fryingpan.png","40","image-keyboard-response","321","234175","0.0-29.0-0.1","Mozilla/5.0 (Windows NT 10.0; Win64; x64) AppleWebKit/537.36 (KHTML, like Gecko) Chrome/91.0.4472.114 Safari/537.36 Edg/91.0.864.59","W1920,H1080","1770 x 937","true","","12","1","12","8","0","14","0"
"598.6999999880791","img/Mug.png","40","image-keyboard-response","322","234775","0.0-29.0-0.2","Mozilla/5.0 (Windows NT 10.0; Win64; x64) AppleWebKit/537.36 (KHTML, like Gecko) Chrome/91.0.4472.114 Safari/537.36 Edg/91.0.864.59","W1920,H1080","1770 x 937","true","","12","2","14","8","0","14","0"
"505.69999998807907","img/Lightbulb.png","40","image-keyboard-response","323","235284","0.0-29.0-0.3","Mozilla/5.0 (Windows NT 10.0; Win64; x64) AppleWebKit/537.36 (KHTML, like Gecko) Chrome/91.0.4472.114 Safari/537.36 Edg/91.0.864.59","W1920,H1080","1770 x 937","true","","12","3","0","8","0","14","0"
"660.5","img/Toiletpaper.png","40","image-keyboard-response","324","235945","0.0-29.0-0.4","Mozilla/5.0 (Windows NT 10.0; Win64; x64) AppleWebKit/537.36 (KHTML, like Gecko) Chrome/91.0.4472.114 Safari/537.36 Edg/91.0.864.59","W1920,H1080","1770 x 937","true","","12","4","2","8","0","14","0"
"527.9000000357628","img/Lightbulb.png","40","image-keyboard-response","325","236475","0.0-29.0-0.5","Mozilla/5.0 (Windows NT 10.0; Win64; x64) AppleWebKit/537.36 (KHTML, like Gecko) Chrome/91.0.4472.114 Safari/537.36 Edg/91.0.864.59","W1920,H1080","1770 x 937","true","","12","5","0","8","0","14","0"
"557.8000000119209","img/Toiletpaper.png","40","image-keyboard-response","326","237035","0.0-29.0-0.6","Mozilla/5.0 (Windows NT 10.0; Win64; x64) AppleWebKit/537.36 (KHTML, like Gecko) Chrome/91.0.4472.114 Safari/537.36 Edg/91.0.864.59","W1920,H1080","1770 x 937","true","","12","6","2","8","0","14","0"
"607.5","img/Book.png","40","image-keyboard-response","327","237645","0.0-29.0-0.7","Mozilla/5.0 (Windows NT 10.0; Win64; x64) AppleWebKit/537.36 (KHTML, like Gecko) Chrome/91.0.4472.114 Safari/537.36 Edg/91.0.864.59","W1920,H1080","1770 x 937","true","","12","7","1","8","0","14","0"
"528.3999999761581","img/Boot.png","40","image-keyboard-response","328","238175","0.0-29.0-0.8","Mozilla/5.0 (Windows NT 10.0; Win64; x64) AppleWebKit/537.36 (KHTML, like Gecko) Chrome/91.0.4472.114 Safari/537.36 Edg/91.0.864.59","W1920,H1080","1770 x 937","true","","12","8","4","8","0","14","0"
"877.6000000238419","img/Jar.png","40","image-keyboard-response","329","239055","0.0-29.0-0.9","Mozilla/5.0 (Windows NT 10.0; Win64; x64) AppleWebKit/537.36 (KHTML, like Gecko) Chrome/91.0.4472.114 Safari/537.36 Edg/91.0.864.59","W1920,H1080","1770 x 937","true","","12","9","5","8","0","14","0"
"608.8000000119209","img/Floppy.png","39","image-keyboard-response","330","239665","0.0-29.0-0.10","Mozilla/5.0 (Windows NT 10.0; Win64; x64) AppleWebKit/537.36 (KHTML, like Gecko) Chrome/91.0.4472.114 Safari/537.36 Edg/91.0.864.59","W1920,H1080","1770 x 937","true","","12","10","7","8","1","13","1"
"null","img/Cap.png","null","image-keyboard-response","331","239673","0.0-29.0-0.11","Mozilla/5.0 (Windows NT 10.0; Win64; x64) AppleWebKit/537.36 (KHTML, like Gecko) Chrome/91.0.4472.114 Safari/537.36 Edg/91.0.864.59","W1920,H1080","1770 x 937","true","","12","11","8","8","0","18","0"
