"rt","stimulus","key_press","trial_type","trial_index","time_elapsed","internal_node_id","browser","scRes","window_resolution","focus","success","miniblock","nSteps","node","goalnode","choiceVar","total_reward"
"355","<p >Welcome to the experiment. Press any key to continue.</p>                <p style=""font-family:VideoGame;font-size:10%;"">.</p>","39","html-keyboard-response","0","357","0.0-0.0","Mozilla/5.0 (Windows NT 10.0; Win64; x64; rv:89.0) Gecko/20100101 Firefox/89.0","W1920,H1040","1920 x 955","true","","","","","","",""
"355","<p style=""width:50%; margin-left:auto;margin-right:auto"">Before the start of the experiment, we would like to provide you with some information regarding ourselves and your own privacy. Please read the statements and tick the box if you agree and wish to continue. It is always an option to terminate the experiment when one or more things cause you concern.</p>","39","html-keyboard-response","1","714","0.0-1.0","Mozilla/5.0 (Windows NT 10.0; Win64; x64; rv:89.0) Gecko/20100101 Firefox/89.0","W1920,H1040","1920 x 955","true","","","","","","",""
"350","<p style=""width:50%; margin-left:auto;margin-right:auto"">For the experiment it is important that we set your browser to fullscreen mode. The next page will contain a button you can press to enter fullscreen. If you leave fullscreen during the experiment at any time, this will be recorded and unfortunately we will not be able to complete your payment if this has occurred. Additionally, be aware that the experiment only works for 16:9 aspect ratio monitors. If you do not have a monitor with this aspect ratio, please quit the experiment, as we will ultimately not be able to complete your payment.</p><p>Press any key to continue.</p>","39","html-keyboard-response","2","1065","0.0-2.0","Mozilla/5.0 (Windows NT 10.0; Win64; x64; rv:89.0) Gecko/20100101 Firefox/89.0","W1920,H1040","1920 x 955","true","","","","","","",""
"","","","fullscreen","3","2579","0.0-3.0","Mozilla/5.0 (Windows NT 10.0; Win64; x64; rv:89.0) Gecko/20100101 Firefox/89.0","W1920,H1040","1920 x 1080","true","true","","","","","",""
"6989","img/Lightbulb.png","38","image-keyboard-response","4","9596","0.0-4.0-0.0","Mozilla/5.0 (Windows NT 10.0; Win64; x64; rv:89.0) Gecko/20100101 Firefox/89.0","W1920,H1040","1920 x 1080","true","","","","","","",""
"652","img/Lightbulb.png","40","image-keyboard-response","5","10266","0.0-5.0-0.0","Mozilla/5.0 (Windows NT 10.0; Win64; x64; rv:89.0) Gecko/20100101 Firefox/89.0","W1920,H1040","1920 x 1080","true","","0","0","4","13","0","0"
"785","img/Fryingpan.png","40","image-keyboard-response","6","11082","0.0-5.0-0.1","Mozilla/5.0 (Windows NT 10.0; Win64; x64; rv:89.0) Gecko/20100101 Firefox/89.0","W1920,H1040","1920 x 1080","true","","0","1","2","13","0","0"
"1227","img/Cap.png","40","image-keyboard-response","7","12338","0.0-5.0-0.2","Mozilla/5.0 (Windows NT 10.0; Win64; x64; rv:89.0) Gecko/20100101 Firefox/89.0","W1920,H1040","1920 x 1080","true","","0","2","0","13","0","0"
"826","img/Fryingpan.png","40","image-keyboard-response","8","13171","0.0-5.0-0.3","Mozilla/5.0 (Windows NT 10.0; Win64; x64; rv:89.0) Gecko/20100101 Firefox/89.0","W1920,H1040","1920 x 1080","true","","0","3","2","13","0","0"
"1339","img/Boot.png","40","image-keyboard-response","9","14538","0.0-5.0-0.4","Mozilla/5.0 (Windows NT 10.0; Win64; x64; rv:89.0) Gecko/20100101 Firefox/89.0","W1920,H1040","1920 x 1080","true","","0","4","3","13","0","0"
"2658","img/Ovenmitt.png","40","image-keyboard-response","10","17226","0.0-5.0-0.5","Mozilla/5.0 (Windows NT 10.0; Win64; x64; rv:89.0) Gecko/20100101 Firefox/89.0","W1920,H1040","1920 x 1080","true","","0","5","1","13","0","0"
"908","img/Cap.png","40","image-keyboard-response","11","18138","0.0-5.0-0.6","Mozilla/5.0 (Windows NT 10.0; Win64; x64; rv:89.0) Gecko/20100101 Firefox/89.0","W1920,H1040","1920 x 1080","true","","0","6","0","13","0","0"
"1005","img/Boot.png","40","image-keyboard-response","12","19146","0.0-5.0-0.7","Mozilla/5.0 (Windows NT 10.0; Win64; x64; rv:89.0) Gecko/20100101 Firefox/89.0","W1920,H1040","1920 x 1080","true","","0","7","3","13","0","0"
"995","img/Fryingpan.png","40","image-keyboard-response","13","20146","0.0-5.0-0.8","Mozilla/5.0 (Windows NT 10.0; Win64; x64; rv:89.0) Gecko/20100101 Firefox/89.0","W1920,H1040","1920 x 1080","true","","0","8","2","13","0","0"
"793","img/Cap.png","40","image-keyboard-response","14","20954","0.0-5.0-0.9","Mozilla/5.0 (Windows NT 10.0; Win64; x64; rv:89.0) Gecko/20100101 Firefox/89.0","W1920,H1040","1920 x 1080","true","","0","9","0","13","0","0"
"1167","img/Book.png","40","image-keyboard-response","15","22154","0.0-5.0-0.10","Mozilla/5.0 (Windows NT 10.0; Win64; x64; rv:89.0) Gecko/20100101 Firefox/89.0","W1920,H1040","1920 x 1080","true","","0","10","14","13","0","0"
"1100","img/Cap.png","40","image-keyboard-response","16","23257","0.0-5.0-0.11","Mozilla/5.0 (Windows NT 10.0; Win64; x64; rv:89.0) Gecko/20100101 Firefox/89.0","W1920,H1040","1920 x 1080","true","","0","11","0","13","0","0"
"956","img/Book.png","40","image-keyboard-response","17","24217","0.0-5.0-0.12","Mozilla/5.0 (Windows NT 10.0; Win64; x64; rv:89.0) Gecko/20100101 Firefox/89.0","W1920,H1040","1920 x 1080","true","","0","12","14","13","0","0"
"973","img/Toaster.png","40","image-keyboard-response","18","25225","0.0-5.0-0.13","Mozilla/5.0 (Windows NT 10.0; Win64; x64; rv:89.0) Gecko/20100101 Firefox/89.0","W1920,H1040","1920 x 1080","true","","0","13","11","13","0","0"
"null","img/Mug.png","null","image-keyboard-response","19","25259","0.0-5.0-0.14","Mozilla/5.0 (Windows NT 10.0; Win64; x64; rv:89.0) Gecko/20100101 Firefox/89.0","W1920,H1040","1920 x 1080","true","","0","14","13","13","0","0"
"1837","img/Mug.png","38","image-keyboard-response","20","27098","0.0-6.0-0.0","Mozilla/5.0 (Windows NT 10.0; Win64; x64; rv:89.0) Gecko/20100101 Firefox/89.0","W1920,H1040","1920 x 1080","true","","","","","","",""
"1493","img/Mug.png","40","image-keyboard-response","21","28594","0.0-7.0-0.0","Mozilla/5.0 (Windows NT 10.0; Win64; x64; rv:89.0) Gecko/20100101 Firefox/89.0","W1920,H1040","1920 x 1080","true","","1","0","13","7","0","0"
"2696","img/Jar.png","40","image-keyboard-response","22","31321","0.0-7.0-0.1","Mozilla/5.0 (Windows NT 10.0; Win64; x64; rv:89.0) Gecko/20100101 Firefox/89.0","W1920,H1040","1920 x 1080","true","","1","1","10","7","0","0"
"1293","img/Balloon.png","40","image-keyboard-response","23","32674","0.0-7.0-0.2","Mozilla/5.0 (Windows NT 10.0; Win64; x64; rv:89.0) Gecko/20100101 Firefox/89.0","W1920,H1040","1920 x 1080","true","","1","2","9","7","0","0"
"1611","img/Floppy.png","40","image-keyboard-response","24","34338","0.0-7.0-0.3","Mozilla/5.0 (Windows NT 10.0; Win64; x64; rv:89.0) Gecko/20100101 Firefox/89.0","W1920,H1040","1920 x 1080","true","","1","3","6","7","0","0"
"938","img/Toiletpaper.png","40","image-keyboard-response","25","35330","0.0-7.0-0.4","Mozilla/5.0 (Windows NT 10.0; Win64; x64; rv:89.0) Gecko/20100101 Firefox/89.0","W1920,H1040","1920 x 1080","true","","1","4","5","7","0","0"
"null","img/Soapdispenser.png","null","image-keyboard-response","26","35374","0.0-7.0-0.5","Mozilla/5.0 (Windows NT 10.0; Win64; x64; rv:89.0) Gecko/20100101 Firefox/89.0","W1920,H1040","1920 x 1080","true","","1","5","7","7","0","0"
"1683","img/Soapdispenser.png","38","image-keyboard-response","27","37058","0.0-8.0-0.0","Mozilla/5.0 (Windows NT 10.0; Win64; x64; rv:89.0) Gecko/20100101 Firefox/89.0","W1920,H1040","1920 x 1080","true","","","","","","",""
"941","img/Soapdispenser.png","40","image-keyboard-response","28","38002","0.0-9.0-0.0","Mozilla/5.0 (Windows NT 10.0; Win64; x64; rv:89.0) Gecko/20100101 Firefox/89.0","W1920,H1040","1920 x 1080","true","","2","0","7","2","0","0"
"1596","img/Floppy.png","40","image-keyboard-response","29","39602","0.0-9.0-0.1","Mozilla/5.0 (Windows NT 10.0; Win64; x64; rv:89.0) Gecko/20100101 Firefox/89.0","W1920,H1040","1920 x 1080","true","","2","1","6","2","0","0"
"3150","img/Balloon.png","40","image-keyboard-response","30","42754","0.0-9.0-0.2","Mozilla/5.0 (Windows NT 10.0; Win64; x64; rv:89.0) Gecko/20100101 Firefox/89.0","W1920,H1040","1920 x 1080","true","","2","2","9","2","0","0"
"761","img/Soapdispenser.png","40","image-keyboard-response","31","43530","0.0-9.0-0.3","Mozilla/5.0 (Windows NT 10.0; Win64; x64; rv:89.0) Gecko/20100101 Firefox/89.0","W1920,H1040","1920 x 1080","true","","2","3","7","2","0","0"
"1012","img/Floppy.png","40","image-keyboard-response","32","44546","0.0-9.0-0.4","Mozilla/5.0 (Windows NT 10.0; Win64; x64; rv:89.0) Gecko/20100101 Firefox/89.0","W1920,H1040","1920 x 1080","true","","2","4","6","2","0","0"
"597","img/Balloon.png","40","image-keyboard-response","33","45144","0.0-9.0-0.5","Mozilla/5.0 (Windows NT 10.0; Win64; x64; rv:89.0) Gecko/20100101 Firefox/89.0","W1920,H1040","1920 x 1080","true","","2","5","9","2","0","0"
"737","img/Floppy.png","40","image-keyboard-response","34","45882","0.0-9.0-0.6","Mozilla/5.0 (Windows NT 10.0; Win64; x64; rv:89.0) Gecko/20100101 Firefox/89.0","W1920,H1040","1920 x 1080","true","","2","6","6","2","0","0"
"1078","img/Soapdispenser.png","40","image-keyboard-response","35","46969","0.0-9.0-0.7","Mozilla/5.0 (Windows NT 10.0; Win64; x64; rv:89.0) Gecko/20100101 Firefox/89.0","W1920,H1040","1920 x 1080","true","","2","7","7","2","0","0"
"691","img/Floppy.png","40","image-keyboard-response","36","47665","0.0-9.0-0.8","Mozilla/5.0 (Windows NT 10.0; Win64; x64; rv:89.0) Gecko/20100101 Firefox/89.0","W1920,H1040","1920 x 1080","true","","2","8","6","2","0","0"
"599","img/Soapdispenser.png","40","image-keyboard-response","37","48266","0.0-9.0-0.9","Mozilla/5.0 (Windows NT 10.0; Win64; x64; rv:89.0) Gecko/20100101 Firefox/89.0","W1920,H1040","1920 x 1080","true","","2","9","7","2","0","0"
"1001","img/Basket.png","40","image-keyboard-response","38","49298","0.0-9.0-0.10","Mozilla/5.0 (Windows NT 10.0; Win64; x64; rv:89.0) Gecko/20100101 Firefox/89.0","W1920,H1040","1920 x 1080","true","","2","10","8","2","0","0"
"949","img/Balloon.png","40","image-keyboard-response","39","50250","0.0-9.0-0.11","Mozilla/5.0 (Windows NT 10.0; Win64; x64; rv:89.0) Gecko/20100101 Firefox/89.0","W1920,H1040","1920 x 1080","true","","2","11","9","2","0","0"
"677","img/Floppy.png","40","image-keyboard-response","40","50930","0.0-9.0-0.12","Mozilla/5.0 (Windows NT 10.0; Win64; x64; rv:89.0) Gecko/20100101 Firefox/89.0","W1920,H1040","1920 x 1080","true","","2","12","6","2","0","0"
"900","img/Toiletpaper.png","40","image-keyboard-response","41","51834","0.0-9.0-0.13","Mozilla/5.0 (Windows NT 10.0; Win64; x64; rv:89.0) Gecko/20100101 Firefox/89.0","W1920,H1040","1920 x 1080","true","","2","13","5","2","0","0"
"917","img/Basket.png","39","image-keyboard-response","42","52754","0.0-9.0-0.14","Mozilla/5.0 (Windows NT 10.0; Win64; x64; rv:89.0) Gecko/20100101 Firefox/89.0","W1920,H1040","1920 x 1080","true","","2","14","8","2","1","0"
"1052","img/Soapdispenser.png","37","image-keyboard-response","43","53810","0.0-9.0-0.15","Mozilla/5.0 (Windows NT 10.0; Win64; x64; rv:89.0) Gecko/20100101 Firefox/89.0","W1920,H1040","1920 x 1080","true","","2","15","7","2","-1","0"
"846","img/Floppy.png","40","image-keyboard-response","44","54673","0.0-9.0-0.16","Mozilla/5.0 (Windows NT 10.0; Win64; x64; rv:89.0) Gecko/20100101 Firefox/89.0","W1920,H1040","1920 x 1080","true","","2","16","6","2","0","0"
"799","img/Soapdispenser.png","40","image-keyboard-response","45","55472","0.0-9.0-0.17","Mozilla/5.0 (Windows NT 10.0; Win64; x64; rv:89.0) Gecko/20100101 Firefox/89.0","W1920,H1040","1920 x 1080","true","","2","17","7","2","0","0"
"783","img/Floppy.png","40","image-keyboard-response","46","56258","0.0-9.0-0.18","Mozilla/5.0 (Windows NT 10.0; Win64; x64; rv:89.0) Gecko/20100101 Firefox/89.0","W1920,H1040","1920 x 1080","true","","2","18","6","2","0","0"
"772","img/Toiletpaper.png","40","image-keyboard-response","47","57042","0.0-9.0-0.19","Mozilla/5.0 (Windows NT 10.0; Win64; x64; rv:89.0) Gecko/20100101 Firefox/89.0","W1920,H1040","1920 x 1080","true","","2","19","5","2","0","0"
"957","img/Lightbulb.png","39","image-keyboard-response","48","58001","0.0-9.0-0.20","Mozilla/5.0 (Windows NT 10.0; Win64; x64; rv:89.0) Gecko/20100101 Firefox/89.0","W1920,H1040","1920 x 1080","true","","2","20","4","2","1","0"
"724","img/Ovenmitt.png","39","image-keyboard-response","49","58730","0.0-9.0-0.21","Mozilla/5.0 (Windows NT 10.0; Win64; x64; rv:89.0) Gecko/20100101 Firefox/89.0","W1920,H1040","1920 x 1080","true","","2","21","1","2","1","0"
"707","img/Boot.png","39","image-keyboard-response","50","59441","0.0-9.0-0.22","Mozilla/5.0 (Windows NT 10.0; Win64; x64; rv:89.0) Gecko/20100101 Firefox/89.0","W1920,H1040","1920 x 1080","true","","2","22","3","2","1","0"
"null","img/Fryingpan.png","null","image-keyboard-response","51","59459","0.0-9.0-0.23","Mozilla/5.0 (Windows NT 10.0; Win64; x64; rv:89.0) Gecko/20100101 Firefox/89.0","W1920,H1040","1920 x 1080","true","","2","23","2","2","0","15"
"2829","img/Fryingpan.png","38","image-keyboard-response","52","62290","0.0-10.0-0.0","Mozilla/5.0 (Windows NT 10.0; Win64; x64; rv:89.0) Gecko/20100101 Firefox/89.0","W1920,H1040","1920 x 1080","true","","","","","","",""
"444","img/Fryingpan.png","40","image-keyboard-response","53","62737","0.0-11.0-0.0","Mozilla/5.0 (Windows NT 10.0; Win64; x64; rv:89.0) Gecko/20100101 Firefox/89.0","W1920,H1040","1920 x 1080","true","","3","0","2","5","0","15"
"637","img/Lightbulb.png","40","image-keyboard-response","54","63377","0.0-11.0-0.1","Mozilla/5.0 (Windows NT 10.0; Win64; x64; rv:89.0) Gecko/20100101 Firefox/89.0","W1920,H1040","1920 x 1080","true","","3","1","4","5","0","15"
"743","img/Ovenmitt.png","40","image-keyboard-response","55","64122","0.0-11.0-0.2","Mozilla/5.0 (Windows NT 10.0; Win64; x64; rv:89.0) Gecko/20100101 Firefox/89.0","W1920,H1040","1920 x 1080","true","","3","2","1","5","0","15"
"722","img/Cap.png","40","image-keyboard-response","56","64858","0.0-11.0-0.3","Mozilla/5.0 (Windows NT 10.0; Win64; x64; rv:89.0) Gecko/20100101 Firefox/89.0","W1920,H1040","1920 x 1080","true","","3","3","0","5","0","15"
"922","img/Fryingpan.png","40","image-keyboard-response","57","65785","0.0-11.0-0.4","Mozilla/5.0 (Windows NT 10.0; Win64; x64; rv:89.0) Gecko/20100101 Firefox/89.0","W1920,H1040","1920 x 1080","true","","3","4","2","5","0","15"
"668","img/Ovenmitt.png","40","image-keyboard-response","58","66458","0.0-11.0-0.5","Mozilla/5.0 (Windows NT 10.0; Win64; x64; rv:89.0) Gecko/20100101 Firefox/89.0","W1920,H1040","1920 x 1080","true","","3","5","1","5","0","15"
"987","img/Lightbulb.png","39","image-keyboard-response","59","67458","0.0-11.0-0.6","Mozilla/5.0 (Windows NT 10.0; Win64; x64; rv:89.0) Gecko/20100101 Firefox/89.0","W1920,H1040","1920 x 1080","true","","3","6","4","5","1","14"
"725","img/Boot.png","37","image-keyboard-response","60","68186","0.0-11.0-0.7","Mozilla/5.0 (Windows NT 10.0; Win64; x64; rv:89.0) Gecko/20100101 Firefox/89.0","W1920,H1040","1920 x 1080","true","","3","7","3","5","-1","14"
"694","img/Ovenmitt.png","40","image-keyboard-response","61","68882","0.0-11.0-0.8","Mozilla/5.0 (Windows NT 10.0; Win64; x64; rv:89.0) Gecko/20100101 Firefox/89.0","W1920,H1040","1920 x 1080","true","","3","8","1","5","0","14"
"740","img/Fryingpan.png","40","image-keyboard-response","62","69625","0.0-11.0-0.9","Mozilla/5.0 (Windows NT 10.0; Win64; x64; rv:89.0) Gecko/20100101 Firefox/89.0","W1920,H1040","1920 x 1080","true","","3","9","2","5","0","14"
"748","img/Ovenmitt.png","40","image-keyboard-response","63","70377","0.0-11.0-0.10","Mozilla/5.0 (Windows NT 10.0; Win64; x64; rv:89.0) Gecko/20100101 Firefox/89.0","W1920,H1040","1920 x 1080","true","","3","10","1","5","0","14"
"884","img/Lightbulb.png","40","image-keyboard-response","64","71266","0.0-11.0-0.11","Mozilla/5.0 (Windows NT 10.0; Win64; x64; rv:89.0) Gecko/20100101 Firefox/89.0","W1920,H1040","1920 x 1080","true","","3","11","4","5","0","14"
"708","img/Boot.png","40","image-keyboard-response","65","71978","0.0-11.0-0.12","Mozilla/5.0 (Windows NT 10.0; Win64; x64; rv:89.0) Gecko/20100101 Firefox/89.0","W1920,H1040","1920 x 1080","true","","3","12","3","5","0","14"
"635","img/Cap.png","39","image-keyboard-response","66","72617","0.0-11.0-0.13","Mozilla/5.0 (Windows NT 10.0; Win64; x64; rv:89.0) Gecko/20100101 Firefox/89.0","W1920,H1040","1920 x 1080","true","","3","13","0","5","1","13"
"749","img/Fryingpan.png","37","image-keyboard-response","67","73369","0.0-11.0-0.14","Mozilla/5.0 (Windows NT 10.0; Win64; x64; rv:89.0) Gecko/20100101 Firefox/89.0","W1920,H1040","1920 x 1080","true","","3","14","2","5","-1","13"
"693","img/Boot.png","40","image-keyboard-response","68","74066","0.0-11.0-0.15","Mozilla/5.0 (Windows NT 10.0; Win64; x64; rv:89.0) Gecko/20100101 Firefox/89.0","W1920,H1040","1920 x 1080","true","","3","15","3","5","0","13"
"708","img/Lightbulb.png","40","image-keyboard-response","69","74778","0.0-11.0-0.16","Mozilla/5.0 (Windows NT 10.0; Win64; x64; rv:89.0) Gecko/20100101 Firefox/89.0","W1920,H1040","1920 x 1080","true","","3","16","4","5","0","13"
"null","img/Toiletpaper.png","null","image-keyboard-response","70","74805","0.0-11.0-0.17","Mozilla/5.0 (Windows NT 10.0; Win64; x64; rv:89.0) Gecko/20100101 Firefox/89.0","W1920,H1040","1920 x 1080","true","","3","17","5","5","0","13"
"1868","img/Toiletpaper.png","38","image-keyboard-response","71","76674","0.0-12.0-0.0","Mozilla/5.0 (Windows NT 10.0; Win64; x64; rv:89.0) Gecko/20100101 Firefox/89.0","W1920,H1040","1920 x 1080","true","","","","","","",""
"887","img/Toiletpaper.png","40","image-keyboard-response","72","77570","0.0-13.0-0.0","Mozilla/5.0 (Windows NT 10.0; Win64; x64; rv:89.0) Gecko/20100101 Firefox/89.0","W1920,H1040","1920 x 1080","true","","4","0","5","12","0","13"
"786","img/Soapdispenser.png","40","image-keyboard-response","73","78362","0.0-13.0-0.1","Mozilla/5.0 (Windows NT 10.0; Win64; x64; rv:89.0) Gecko/20100101 Firefox/89.0","W1920,H1040","1920 x 1080","true","","4","1","7","12","0","13"
"644","img/Toiletpaper.png","40","image-keyboard-response","74","79010","0.0-13.0-0.2","Mozilla/5.0 (Windows NT 10.0; Win64; x64; rv:89.0) Gecko/20100101 Firefox/89.0","W1920,H1040","1920 x 1080","true","","4","2","5","12","0","13"
"828","img/Basket.png","40","image-keyboard-response","75","79842","0.0-13.0-0.3","Mozilla/5.0 (Windows NT 10.0; Win64; x64; rv:89.0) Gecko/20100101 Firefox/89.0","W1920,H1040","1920 x 1080","true","","4","3","8","12","0","13"
"668","img/Toiletpaper.png","40","image-keyboard-response","76","80513","0.0-13.0-0.4","Mozilla/5.0 (Windows NT 10.0; Win64; x64; rv:89.0) Gecko/20100101 Firefox/89.0","W1920,H1040","1920 x 1080","true","","4","4","5","12","0","13"
"772","img/Basket.png","40","image-keyboard-response","77","81290","0.0-13.0-0.5","Mozilla/5.0 (Windows NT 10.0; Win64; x64; rv:89.0) Gecko/20100101 Firefox/89.0","W1920,H1040","1920 x 1080","true","","4","5","8","12","0","13"
"917","img/Soapdispenser.png","39","image-keyboard-response","78","82210","0.0-13.0-0.6","Mozilla/5.0 (Windows NT 10.0; Win64; x64; rv:89.0) Gecko/20100101 Firefox/89.0","W1920,H1040","1920 x 1080","true","","4","6","7","12","1","12"
"644","img/Balloon.png","39","image-keyboard-response","79","82858","0.0-13.0-0.7","Mozilla/5.0 (Windows NT 10.0; Win64; x64; rv:89.0) Gecko/20100101 Firefox/89.0","W1920,H1040","1920 x 1080","true","","4","7","9","12","1","10"
"604","img/Jar.png","39","image-keyboard-response","80","83465","0.0-13.0-0.8","Mozilla/5.0 (Windows NT 10.0; Win64; x64; rv:89.0) Gecko/20100101 Firefox/89.0","W1920,H1040","1920 x 1080","true","","4","8","10","12","1","7"
"637","img/Mug.png","39","image-keyboard-response","81","84106","0.0-13.0-0.9","Mozilla/5.0 (Windows NT 10.0; Win64; x64; rv:89.0) Gecko/20100101 Firefox/89.0","W1920,H1040","1920 x 1080","true","","4","9","13","12","1","3"
"620","img/Book.png","39","image-keyboard-response","82","84730","0.0-13.0-0.10","Mozilla/5.0 (Windows NT 10.0; Win64; x64; rv:89.0) Gecko/20100101 Firefox/89.0","W1920,H1040","1920 x 1080","true","","4","10","14","12","1","0"
"668","img/Mug.png","40","image-keyboard-response","83","85402","0.0-13.0-0.11","Mozilla/5.0 (Windows NT 10.0; Win64; x64; rv:89.0) Gecko/20100101 Firefox/89.0","W1920,H1040","1920 x 1080","true","","4","11","13","12","0","0"
"515","img/Book.png","40","image-keyboard-response","84","85930","0.0-13.0-0.12","Mozilla/5.0 (Windows NT 10.0; Win64; x64; rv:89.0) Gecko/20100101 Firefox/89.0","W1920,H1040","1920 x 1080","true","","4","12","14","12","0","0"
"404","img/Mug.png","40","image-keyboard-response","85","86337","0.0-13.0-0.13","Mozilla/5.0 (Windows NT 10.0; Win64; x64; rv:89.0) Gecko/20100101 Firefox/89.0","W1920,H1040","1920 x 1080","true","","4","13","13","12","0","0"
"444","img/Jar.png","40","image-keyboard-response","86","86786","0.0-13.0-0.14","Mozilla/5.0 (Windows NT 10.0; Win64; x64; rv:89.0) Gecko/20100101 Firefox/89.0","W1920,H1040","1920 x 1080","true","","4","14","10","12","0","0"
"489","img/Toaster.png","40","image-keyboard-response","87","87282","0.0-13.0-0.15","Mozilla/5.0 (Windows NT 10.0; Win64; x64; rv:89.0) Gecko/20100101 Firefox/89.0","W1920,H1040","1920 x 1080","true","","4","15","11","12","0","0"
"770","img/Mug.png","40","image-keyboard-response","88","88058","0.0-13.0-0.16","Mozilla/5.0 (Windows NT 10.0; Win64; x64; rv:89.0) Gecko/20100101 Firefox/89.0","W1920,H1040","1920 x 1080","true","","4","16","13","12","0","0"
"586","img/Book.png","40","image-keyboard-response","89","88650","0.0-13.0-0.17","Mozilla/5.0 (Windows NT 10.0; Win64; x64; rv:89.0) Gecko/20100101 Firefox/89.0","W1920,H1040","1920 x 1080","true","","4","17","14","12","0","0"
"468","img/Toaster.png","40","image-keyboard-response","90","89122","0.0-13.0-0.18","Mozilla/5.0 (Windows NT 10.0; Win64; x64; rv:89.0) Gecko/20100101 Firefox/89.0","W1920,H1040","1920 x 1080","true","","4","18","11","12","0","0"
"852","img/Mug.png","40","image-keyboard-response","91","89977","0.0-13.0-0.19","Mozilla/5.0 (Windows NT 10.0; Win64; x64; rv:89.0) Gecko/20100101 Firefox/89.0","W1920,H1040","1920 x 1080","true","","4","19","13","12","0","0"
"null","img/Clipboard.png","null","image-keyboard-response","92","90044","0.0-13.0-0.20","Mozilla/5.0 (Windows NT 10.0; Win64; x64; rv:89.0) Gecko/20100101 Firefox/89.0","W1920,H1040","1920 x 1080","true","","4","20","12","12","0","25"
"3220","img/Clipboard.png","38","image-keyboard-response","93","93266","0.0-14.0-0.0","Mozilla/5.0 (Windows NT 10.0; Win64; x64; rv:89.0) Gecko/20100101 Firefox/89.0","W1920,H1040","1920 x 1080","true","","","","","","",""
"1011","img/Clipboard.png","40","image-keyboard-response","94","94282","0.0-15.0-0.0","Mozilla/5.0 (Windows NT 10.0; Win64; x64; rv:89.0) Gecko/20100101 Firefox/89.0","W1920,H1040","1920 x 1080","true","","5","0","12","9","0","25"
"1117","img/Book.png","39","image-keyboard-response","95","95401","0.0-15.0-0.1","Mozilla/5.0 (Windows NT 10.0; Win64; x64; rv:89.0) Gecko/20100101 Firefox/89.0","W1920,H1040","1920 x 1080","true","","5","1","14","9","1","24"
"764","img/Toaster.png","39","image-keyboard-response","96","96170","0.0-15.0-0.2","Mozilla/5.0 (Windows NT 10.0; Win64; x64; rv:89.0) Gecko/20100101 Firefox/89.0","W1920,H1040","1920 x 1080","true","","5","2","11","9","1","22"
"1010","img/Jar.png","37","image-keyboard-response","97","97195","0.0-15.0-0.3","Mozilla/5.0 (Windows NT 10.0; Win64; x64; rv:89.0) Gecko/20100101 Firefox/89.0","W1920,H1040","1920 x 1080","true","","5","3","10","9","-1","21"
"772","img/Mug.png","39","image-keyboard-response","98","97970","0.0-15.0-0.4","Mozilla/5.0 (Windows NT 10.0; Win64; x64; rv:89.0) Gecko/20100101 Firefox/89.0","W1920,H1040","1920 x 1080","true","","5","4","13","9","1","19"
"613","img/Book.png","39","image-keyboard-response","99","98586","0.0-15.0-0.5","Mozilla/5.0 (Windows NT 10.0; Win64; x64; rv:89.0) Gecko/20100101 Firefox/89.0","W1920,H1040","1920 x 1080","true","","5","5","14","9","1","16"
"796","img/Clipboard.png","39","image-keyboard-response","100","99386","0.0-15.0-0.6","Mozilla/5.0 (Windows NT 10.0; Win64; x64; rv:89.0) Gecko/20100101 Firefox/89.0","W1920,H1040","1920 x 1080","true","","5","6","12","9","1","12"
"819","img/Book.png","39","image-keyboard-response","101","100210","0.0-15.0-0.7","Mozilla/5.0 (Windows NT 10.0; Win64; x64; rv:89.0) Gecko/20100101 Firefox/89.0","W1920,H1040","1920 x 1080","true","","5","7","14","9","1","7"
"769","img/Toaster.png","40","image-keyboard-response","102","100986","0.0-15.0-0.8","Mozilla/5.0 (Windows NT 10.0; Win64; x64; rv:89.0) Gecko/20100101 Firefox/89.0","W1920,H1040","1920 x 1080","true","","5","8","11","9","0","2"
"809","img/Mug.png","40","image-keyboard-response","103","101802","0.0-15.0-0.9","Mozilla/5.0 (Windows NT 10.0; Win64; x64; rv:89.0) Gecko/20100101 Firefox/89.0","W1920,H1040","1920 x 1080","true","","5","9","13","9","0","0"
"659","img/Book.png","40","image-keyboard-response","104","102466","0.0-15.0-0.10","Mozilla/5.0 (Windows NT 10.0; Win64; x64; rv:89.0) Gecko/20100101 Firefox/89.0","W1920,H1040","1920 x 1080","true","","5","10","14","9","0","0"
"629","img/Clipboard.png","40","image-keyboard-response","105","103113","0.0-15.0-0.11","Mozilla/5.0 (Windows NT 10.0; Win64; x64; rv:89.0) Gecko/20100101 Firefox/89.0","W1920,H1040","1920 x 1080","true","","5","11","12","9","0","0"
"541","img/Mug.png","40","image-keyboard-response","106","103658","0.0-15.0-0.12","Mozilla/5.0 (Windows NT 10.0; Win64; x64; rv:89.0) Gecko/20100101 Firefox/89.0","W1920,H1040","1920 x 1080","true","","5","12","13","9","0","0"
"533","img/Clipboard.png","40","image-keyboard-response","107","104194","0.0-15.0-0.13","Mozilla/5.0 (Windows NT 10.0; Win64; x64; rv:89.0) Gecko/20100101 Firefox/89.0","W1920,H1040","1920 x 1080","true","","5","13","12","9","0","0"
"531","img/Jar.png","40","image-keyboard-response","108","104730","0.0-15.0-0.14","Mozilla/5.0 (Windows NT 10.0; Win64; x64; rv:89.0) Gecko/20100101 Firefox/89.0","W1920,H1040","1920 x 1080","true","","5","14","10","9","0","0"
"691","img/Toaster.png","40","image-keyboard-response","109","105426","0.0-15.0-0.15","Mozilla/5.0 (Windows NT 10.0; Win64; x64; rv:89.0) Gecko/20100101 Firefox/89.0","W1920,H1040","1920 x 1080","true","","5","15","11","9","0","0"
"645","img/Jar.png","40","image-keyboard-response","110","106074","0.0-15.0-0.16","Mozilla/5.0 (Windows NT 10.0; Win64; x64; rv:89.0) Gecko/20100101 Firefox/89.0","W1920,H1040","1920 x 1080","true","","5","16","10","9","0","0"
"588","img/Toaster.png","40","image-keyboard-response","111","106665","0.0-15.0-0.17","Mozilla/5.0 (Windows NT 10.0; Win64; x64; rv:89.0) Gecko/20100101 Firefox/89.0","W1920,H1040","1920 x 1080","true","","5","17","11","9","0","0"
"517","img/Jar.png","40","image-keyboard-response","112","107194","0.0-15.0-0.18","Mozilla/5.0 (Windows NT 10.0; Win64; x64; rv:89.0) Gecko/20100101 Firefox/89.0","W1920,H1040","1920 x 1080","true","","5","18","10","9","0","0"
"null","img/Balloon.png","null","image-keyboard-response","113","107203","0.0-15.0-0.19","Mozilla/5.0 (Windows NT 10.0; Win64; x64; rv:89.0) Gecko/20100101 Firefox/89.0","W1920,H1040","1920 x 1080","true","","5","19","9","9","0","25"
"7079","img/Balloon.png","38","image-keyboard-response","114","114281","0.0-16.0-0.0","Mozilla/5.0 (Windows NT 10.0; Win64; x64; rv:89.0) Gecko/20100101 Firefox/89.0","W1920,H1040","1920 x 1080","true","","","","","","",""
"457","img/Balloon.png","40","image-keyboard-response","115","114746","0.0-17.0-0.0","Mozilla/5.0 (Windows NT 10.0; Win64; x64; rv:89.0) Gecko/20100101 Firefox/89.0","W1920,H1040","1920 x 1080","true","","6","0","9","12","0","25"
"1034","img/Basket.png","40","image-keyboard-response","116","115786","0.0-17.0-0.1","Mozilla/5.0 (Windows NT 10.0; Win64; x64; rv:89.0) Gecko/20100101 Firefox/89.0","W1920,H1040","1920 x 1080","true","","6","1","8","12","0","25"
"1222","img/Toiletpaper.png","40","image-keyboard-response","117","117018","0.0-17.0-0.2","Mozilla/5.0 (Windows NT 10.0; Win64; x64; rv:89.0) Gecko/20100101 Firefox/89.0","W1920,H1040","1920 x 1080","true","","6","2","5","12","0","25"
"810","img/Lightbulb.png","39","image-keyboard-response","118","117842","0.0-17.0-0.3","Mozilla/5.0 (Windows NT 10.0; Win64; x64; rv:89.0) Gecko/20100101 Firefox/89.0","W1920,H1040","1920 x 1080","true","","6","3","4","12","1","24"
"1044","img/Toiletpaper.png","39","image-keyboard-response","119","118890","0.0-17.0-0.4","Mozilla/5.0 (Windows NT 10.0; Win64; x64; rv:89.0) Gecko/20100101 Firefox/89.0","W1920,H1040","1920 x 1080","true","","6","4","5","12","1","22"
"772","img/Lightbulb.png","39","image-keyboard-response","120","119666","0.0-17.0-0.5","Mozilla/5.0 (Windows NT 10.0; Win64; x64; rv:89.0) Gecko/20100101 Firefox/89.0","W1920,H1040","1920 x 1080","true","","6","5","4","12","1","19"
"820","img/Boot.png","39","image-keyboard-response","121","120489","0.0-17.0-0.6","Mozilla/5.0 (Windows NT 10.0; Win64; x64; rv:89.0) Gecko/20100101 Firefox/89.0","W1920,H1040","1920 x 1080","true","","6","6","3","12","1","15"
"699","img/Fryingpan.png","39","image-keyboard-response","122","121193","0.0-17.0-0.7","Mozilla/5.0 (Windows NT 10.0; Win64; x64; rv:89.0) Gecko/20100101 Firefox/89.0","W1920,H1040","1920 x 1080","true","","6","7","2","12","1","10"
"700","img/Boot.png","40","image-keyboard-response","123","121898","0.0-17.0-0.8","Mozilla/5.0 (Windows NT 10.0; Win64; x64; rv:89.0) Gecko/20100101 Firefox/89.0","W1920,H1040","1920 x 1080","true","","6","8","3","12","0","5"
"1102","img/Ovenmitt.png","40","image-keyboard-response","124","123002","0.0-17.0-0.9","Mozilla/5.0 (Windows NT 10.0; Win64; x64; rv:89.0) Gecko/20100101 Firefox/89.0","W1920,H1040","1920 x 1080","true","","6","9","1","12","0","0"
"892","img/Fryingpan.png","40","image-keyboard-response","125","123898","0.0-17.0-0.10","Mozilla/5.0 (Windows NT 10.0; Win64; x64; rv:89.0) Gecko/20100101 Firefox/89.0","W1920,H1040","1920 x 1080","true","","6","10","2","12","0","0"
"701","img/Ovenmitt.png","40","image-keyboard-response","126","124601","0.0-17.0-0.11","Mozilla/5.0 (Windows NT 10.0; Win64; x64; rv:89.0) Gecko/20100101 Firefox/89.0","W1920,H1040","1920 x 1080","true","","6","11","1","12","0","0"
"703","img/Lightbulb.png","40","image-keyboard-response","127","125305","0.0-17.0-0.12","Mozilla/5.0 (Windows NT 10.0; Win64; x64; rv:89.0) Gecko/20100101 Firefox/89.0","W1920,H1040","1920 x 1080","true","","6","12","4","12","0","0"
"840","img/Ovenmitt.png","40","image-keyboard-response","128","126146","0.0-17.0-0.13","Mozilla/5.0 (Windows NT 10.0; Win64; x64; rv:89.0) Gecko/20100101 Firefox/89.0","W1920,H1040","1920 x 1080","true","","6","13","1","12","0","0"
"1330","img/Boot.png","40","image-keyboard-response","129","127482","0.0-17.0-0.14","Mozilla/5.0 (Windows NT 10.0; Win64; x64; rv:89.0) Gecko/20100101 Firefox/89.0","W1920,H1040","1920 x 1080","true","","6","14","3","12","0","0"
"3333","img/Cap.png","40","image-keyboard-response","130","130833","0.0-17.0-0.15","Mozilla/5.0 (Windows NT 10.0; Win64; x64; rv:89.0) Gecko/20100101 Firefox/89.0","W1920,H1040","1920 x 1080","true","","6","15","0","12","0","0"
"3275","img/Boot.png","40","image-keyboard-response","131","134113","0.0-17.0-0.16","Mozilla/5.0 (Windows NT 10.0; Win64; x64; rv:89.0) Gecko/20100101 Firefox/89.0","W1920,H1040","1920 x 1080","true","","6","16","3","12","0","0"
"1265","img/Fryingpan.png","40","image-keyboard-response","132","135386","0.0-17.0-0.17","Mozilla/5.0 (Windows NT 10.0; Win64; x64; rv:89.0) Gecko/20100101 Firefox/89.0","W1920,H1040","1920 x 1080","true","","6","17","2","12","0","0"
"684","img/Ovenmitt.png","40","image-keyboard-response","133","136074","0.0-17.0-0.18","Mozilla/5.0 (Windows NT 10.0; Win64; x64; rv:89.0) Gecko/20100101 Firefox/89.0","W1920,H1040","1920 x 1080","true","","6","18","1","12","0","0"
"1404","img/Lightbulb.png","40","image-keyboard-response","134","137482","0.0-17.0-0.19","Mozilla/5.0 (Windows NT 10.0; Win64; x64; rv:89.0) Gecko/20100101 Firefox/89.0","W1920,H1040","1920 x 1080","true","","6","19","4","12","0","0"
"1236","img/Toiletpaper.png","40","image-keyboard-response","135","138722","0.0-17.0-0.20","Mozilla/5.0 (Windows NT 10.0; Win64; x64; rv:89.0) Gecko/20100101 Firefox/89.0","W1920,H1040","1920 x 1080","true","","6","20","5","12","0","0"
"724","img/Soapdispenser.png","40","image-keyboard-response","136","139466","0.0-17.0-0.21","Mozilla/5.0 (Windows NT 10.0; Win64; x64; rv:89.0) Gecko/20100101 Firefox/89.0","W1920,H1040","1920 x 1080","true","","6","21","7","12","0","0"
"1917","img/Basket.png","40","image-keyboard-response","137","141386","0.0-17.0-0.22","Mozilla/5.0 (Windows NT 10.0; Win64; x64; rv:89.0) Gecko/20100101 Firefox/89.0","W1920,H1040","1920 x 1080","true","","6","22","8","12","0","0"
"1148","img/Toiletpaper.png","40","image-keyboard-response","138","142538","0.0-17.0-0.23","Mozilla/5.0 (Windows NT 10.0; Win64; x64; rv:89.0) Gecko/20100101 Firefox/89.0","W1920,H1040","1920 x 1080","true","","6","23","5","12","0","0"
"1019","img/Floppy.png","40","image-keyboard-response","139","143586","0.0-17.0-0.24","Mozilla/5.0 (Windows NT 10.0; Win64; x64; rv:89.0) Gecko/20100101 Firefox/89.0","W1920,H1040","1920 x 1080","true","","6","24","6","12","0","0"
"709","img/Balloon.png","40","image-keyboard-response","140","144296","0.0-17.0-0.25","Mozilla/5.0 (Windows NT 10.0; Win64; x64; rv:89.0) Gecko/20100101 Firefox/89.0","W1920,H1040","1920 x 1080","true","","6","25","9","12","0","0"
"870","img/Basket.png","40","image-keyboard-response","141","145170","0.0-17.0-0.26","Mozilla/5.0 (Windows NT 10.0; Win64; x64; rv:89.0) Gecko/20100101 Firefox/89.0","W1920,H1040","1920 x 1080","true","","6","26","8","12","0","0"
"1530","img/Toiletpaper.png","40","image-keyboard-response","142","146714","0.0-17.0-0.27","Mozilla/5.0 (Windows NT 10.0; Win64; x64; rv:89.0) Gecko/20100101 Firefox/89.0","W1920,H1040","1920 x 1080","true","","6","27","5","12","0","0"
"1116","img/Basket.png","40","image-keyboard-response","143","147834","0.0-17.0-0.28","Mozilla/5.0 (Windows NT 10.0; Win64; x64; rv:89.0) Gecko/20100101 Firefox/89.0","W1920,H1040","1920 x 1080","true","","6","28","8","12","0","0"
"652","img/Balloon.png","40","image-keyboard-response","144","148490","0.0-17.0-0.29","Mozilla/5.0 (Windows NT 10.0; Win64; x64; rv:89.0) Gecko/20100101 Firefox/89.0","W1920,H1040","1920 x 1080","true","","6","29","9","12","0","0"
"1501","img/Jar.png","40","image-keyboard-response","145","149993","0.0-17.0-0.30","Mozilla/5.0 (Windows NT 10.0; Win64; x64; rv:89.0) Gecko/20100101 Firefox/89.0","W1920,H1040","1920 x 1080","true","","6","30","10","12","0","0"
"808","img/Mug.png","40","image-keyboard-response","146","150810","0.0-17.0-0.31","Mozilla/5.0 (Windows NT 10.0; Win64; x64; rv:89.0) Gecko/20100101 Firefox/89.0","W1920,H1040","1920 x 1080","true","","6","31","13","12","0","0"
"885","img/Book.png","40","image-keyboard-response","147","151698","0.0-17.0-0.32","Mozilla/5.0 (Windows NT 10.0; Win64; x64; rv:89.0) Gecko/20100101 Firefox/89.0","W1920,H1040","1920 x 1080","true","","6","32","14","12","0","0"
"870","img/Mug.png","40","image-keyboard-response","148","152570","0.0-17.0-0.33","Mozilla/5.0 (Windows NT 10.0; Win64; x64; rv:89.0) Gecko/20100101 Firefox/89.0","W1920,H1040","1920 x 1080","true","","6","33","13","12","0","0"
"843","img/Toaster.png","40","image-keyboard-response","149","153418","0.0-17.0-0.34","Mozilla/5.0 (Windows NT 10.0; Win64; x64; rv:89.0) Gecko/20100101 Firefox/89.0","W1920,H1040","1920 x 1080","true","","6","34","11","12","0","0"
"630","img/Book.png","40","image-keyboard-response","150","154050","0.0-17.0-0.35","Mozilla/5.0 (Windows NT 10.0; Win64; x64; rv:89.0) Gecko/20100101 Firefox/89.0","W1920,H1040","1920 x 1080","true","","6","35","14","12","0","0"
"null","img/Clipboard.png","null","image-keyboard-response","151","154056","0.0-17.0-0.36","Mozilla/5.0 (Windows NT 10.0; Win64; x64; rv:89.0) Gecko/20100101 Firefox/89.0","W1920,H1040","1920 x 1080","true","","6","36","12","12","0","25"
"5144","img/Clipboard.png","38","image-keyboard-response","152","159201","0.0-18.0-0.0","Mozilla/5.0 (Windows NT 10.0; Win64; x64; rv:89.0) Gecko/20100101 Firefox/89.0","W1920,H1040","1920 x 1080","true","","","","","","",""
"575","img/Clipboard.png","40","image-keyboard-response","153","159794","0.0-19.0-0.0","Mozilla/5.0 (Windows NT 10.0; Win64; x64; rv:89.0) Gecko/20100101 Firefox/89.0","W1920,H1040","1920 x 1080","true","","7","0","12","0","0","25"
"764","img/Mug.png","40","image-keyboard-response","154","160562","0.0-19.0-0.1","Mozilla/5.0 (Windows NT 10.0; Win64; x64; rv:89.0) Gecko/20100101 Firefox/89.0","W1920,H1040","1920 x 1080","true","","7","1","13","0","0","25"
"755","img/Clipboard.png","40","image-keyboard-response","155","161330","0.0-19.0-0.2","Mozilla/5.0 (Windows NT 10.0; Win64; x64; rv:89.0) Gecko/20100101 Firefox/89.0","W1920,H1040","1920 x 1080","true","","7","2","12","0","0","25"
"715","img/Mug.png","40","image-keyboard-response","156","162050","0.0-19.0-0.3","Mozilla/5.0 (Windows NT 10.0; Win64; x64; rv:89.0) Gecko/20100101 Firefox/89.0","W1920,H1040","1920 x 1080","true","","7","3","13","0","0","25"
"637","img/Clipboard.png","40","image-keyboard-response","157","162690","0.0-19.0-0.4","Mozilla/5.0 (Windows NT 10.0; Win64; x64; rv:89.0) Gecko/20100101 Firefox/89.0","W1920,H1040","1920 x 1080","true","","7","4","12","0","0","25"
"692","img/Jar.png","40","image-keyboard-response","158","163385","0.0-19.0-0.5","Mozilla/5.0 (Windows NT 10.0; Win64; x64; rv:89.0) Gecko/20100101 Firefox/89.0","W1920,H1040","1920 x 1080","true","","7","5","10","0","0","25"
"613","img/Clipboard.png","40","image-keyboard-response","159","164002","0.0-19.0-0.6","Mozilla/5.0 (Windows NT 10.0; Win64; x64; rv:89.0) Gecko/20100101 Firefox/89.0","W1920,H1040","1920 x 1080","true","","7","6","12","0","0","25"
"628","img/Mug.png","40","image-keyboard-response","160","164634","0.0-19.0-0.7","Mozilla/5.0 (Windows NT 10.0; Win64; x64; rv:89.0) Gecko/20100101 Firefox/89.0","W1920,H1040","1920 x 1080","true","","7","7","13","0","0","25"
"774","img/Book.png","40","image-keyboard-response","161","165410","0.0-19.0-0.8","Mozilla/5.0 (Windows NT 10.0; Win64; x64; rv:89.0) Gecko/20100101 Firefox/89.0","W1920,H1040","1920 x 1080","true","","7","8","14","0","0","25"
"980","img/Toaster.png","40","image-keyboard-response","162","166393","0.0-19.0-0.9","Mozilla/5.0 (Windows NT 10.0; Win64; x64; rv:89.0) Gecko/20100101 Firefox/89.0","W1920,H1040","1920 x 1080","true","","7","9","11","0","0","25"
"739","img/Jar.png","40","image-keyboard-response","163","167137","0.0-19.0-0.10","Mozilla/5.0 (Windows NT 10.0; Win64; x64; rv:89.0) Gecko/20100101 Firefox/89.0","W1920,H1040","1920 x 1080","true","","7","10","10","0","0","25"
"1070","img/Balloon.png","40","image-keyboard-response","164","168210","0.0-19.0-0.11","Mozilla/5.0 (Windows NT 10.0; Win64; x64; rv:89.0) Gecko/20100101 Firefox/89.0","W1920,H1040","1920 x 1080","true","","7","11","9","0","0","25"
"781","img/Floppy.png","39","image-keyboard-response","165","168994","0.0-19.0-0.12","Mozilla/5.0 (Windows NT 10.0; Win64; x64; rv:89.0) Gecko/20100101 Firefox/89.0","W1920,H1040","1920 x 1080","true","","7","12","6","0","1","24"
"740","img/Balloon.png","37","image-keyboard-response","166","169738","0.0-19.0-0.13","Mozilla/5.0 (Windows NT 10.0; Win64; x64; rv:89.0) Gecko/20100101 Firefox/89.0","W1920,H1040","1920 x 1080","true","","7","13","9","0","-1","24"
"700","img/Jar.png","40","image-keyboard-response","167","170442","0.0-19.0-0.14","Mozilla/5.0 (Windows NT 10.0; Win64; x64; rv:89.0) Gecko/20100101 Firefox/89.0","W1920,H1040","1920 x 1080","true","","7","14","10","0","0","24"
"707","img/Balloon.png","40","image-keyboard-response","168","171154","0.0-19.0-0.15","Mozilla/5.0 (Windows NT 10.0; Win64; x64; rv:89.0) Gecko/20100101 Firefox/89.0","W1920,H1040","1920 x 1080","true","","7","15","9","0","0","24"
"761","img/Floppy.png","39","image-keyboard-response","169","171930","0.0-19.0-0.16","Mozilla/5.0 (Windows NT 10.0; Win64; x64; rv:89.0) Gecko/20100101 Firefox/89.0","W1920,H1040","1920 x 1080","true","","7","16","6","0","1","23"
"753","img/Basket.png","39","image-keyboard-response","170","172690","0.0-19.0-0.17","Mozilla/5.0 (Windows NT 10.0; Win64; x64; rv:89.0) Gecko/20100101 Firefox/89.0","W1920,H1040","1920 x 1080","true","","7","17","8","0","1","21"
"804","img/Balloon.png","39","image-keyboard-response","171","173497","0.0-19.0-0.18","Mozilla/5.0 (Windows NT 10.0; Win64; x64; rv:89.0) Gecko/20100101 Firefox/89.0","W1920,H1040","1920 x 1080","true","","7","18","9","0","1","18"
"645","img/Floppy.png","39","image-keyboard-response","172","174146","0.0-19.0-0.19","Mozilla/5.0 (Windows NT 10.0; Win64; x64; rv:89.0) Gecko/20100101 Firefox/89.0","W1920,H1040","1920 x 1080","true","","7","19","6","0","1","14"
"686","img/Basket.png","39","image-keyboard-response","173","174834","0.0-19.0-0.20","Mozilla/5.0 (Windows NT 10.0; Win64; x64; rv:89.0) Gecko/20100101 Firefox/89.0","W1920,H1040","1920 x 1080","true","","7","20","8","0","1","9"
"1283","img/Toiletpaper.png","37","image-keyboard-response","174","176137","0.0-19.0-0.21","Mozilla/5.0 (Windows NT 10.0; Win64; x64; rv:89.0) Gecko/20100101 Firefox/89.0","W1920,H1040","1920 x 1080","true","","7","21","5","0","-1","5"
"653","img/Soapdispenser.png","37","image-keyboard-response","175","176794","0.0-19.0-0.22","Mozilla/5.0 (Windows NT 10.0; Win64; x64; rv:89.0) Gecko/20100101 Firefox/89.0","W1920,H1040","1920 x 1080","true","","7","22","7","0","-1","2"
"644","img/Toiletpaper.png","37","image-keyboard-response","176","177442","0.0-19.0-0.23","Mozilla/5.0 (Windows NT 10.0; Win64; x64; rv:89.0) Gecko/20100101 Firefox/89.0","W1920,H1040","1920 x 1080","true","","7","23","5","0","-1","0"
"650","img/Floppy.png","37","image-keyboard-response","177","178097","0.0-19.0-0.24","Mozilla/5.0 (Windows NT 10.0; Win64; x64; rv:89.0) Gecko/20100101 Firefox/89.0","W1920,H1040","1920 x 1080","true","","7","24","6","0","-1","0"
"829","img/Basket.png","37","image-keyboard-response","178","178930","0.0-19.0-0.25","Mozilla/5.0 (Windows NT 10.0; Win64; x64; rv:89.0) Gecko/20100101 Firefox/89.0","W1920,H1040","1920 x 1080","true","","7","25","8","0","-1","0"
"908","img/Toiletpaper.png","39","image-keyboard-response","179","179842","0.0-19.0-0.26","Mozilla/5.0 (Windows NT 10.0; Win64; x64; rv:89.0) Gecko/20100101 Firefox/89.0","W1920,H1040","1920 x 1080","true","","7","26","5","0","1","0"
"724","img/Floppy.png","39","image-keyboard-response","180","180570","0.0-19.0-0.27","Mozilla/5.0 (Windows NT 10.0; Win64; x64; rv:89.0) Gecko/20100101 Firefox/89.0","W1920,H1040","1920 x 1080","true","","7","27","6","0","1","0"
"701","img/Toiletpaper.png","39","image-keyboard-response","181","181274","0.0-19.0-0.28","Mozilla/5.0 (Windows NT 10.0; Win64; x64; rv:89.0) Gecko/20100101 Firefox/89.0","W1920,H1040","1920 x 1080","true","","7","28","5","0","1","0"
"771","img/Floppy.png","39","image-keyboard-response","182","182057","0.0-19.0-0.29","Mozilla/5.0 (Windows NT 10.0; Win64; x64; rv:89.0) Gecko/20100101 Firefox/89.0","W1920,H1040","1920 x 1080","true","","7","29","6","0","1","0"
"869","img/Toiletpaper.png","39","image-keyboard-response","183","182929","0.0-19.0-0.30","Mozilla/5.0 (Windows NT 10.0; Win64; x64; rv:89.0) Gecko/20100101 Firefox/89.0","W1920,H1040","1920 x 1080","true","","7","30","5","0","1","0"
"1161","img/Soapdispenser.png","40","image-keyboard-response","184","184096","0.0-19.0-0.31","Mozilla/5.0 (Windows NT 10.0; Win64; x64; rv:89.0) Gecko/20100101 Firefox/89.0","W1920,H1040","1920 x 1080","true","","7","31","7","0","0","0"
"1057","img/Basket.png","40","image-keyboard-response","185","185154","0.0-19.0-0.32","Mozilla/5.0 (Windows NT 10.0; Win64; x64; rv:89.0) Gecko/20100101 Firefox/89.0","W1920,H1040","1920 x 1080","true","","7","32","8","0","0","0"
"1202","img/Toiletpaper.png","40","image-keyboard-response","186","186370","0.0-19.0-0.33","Mozilla/5.0 (Windows NT 10.0; Win64; x64; rv:89.0) Gecko/20100101 Firefox/89.0","W1920,H1040","1920 x 1080","true","","7","33","5","0","0","0"
"844","img/Lightbulb.png","40","image-keyboard-response","187","187217","0.0-19.0-0.34","Mozilla/5.0 (Windows NT 10.0; Win64; x64; rv:89.0) Gecko/20100101 Firefox/89.0","W1920,H1040","1920 x 1080","true","","7","34","4","0","0","0"
"1565","img/Ovenmitt.png","40","image-keyboard-response","188","188786","0.0-19.0-0.35","Mozilla/5.0 (Windows NT 10.0; Win64; x64; rv:89.0) Gecko/20100101 Firefox/89.0","W1920,H1040","1920 x 1080","true","","7","35","1","0","0","0"
"null","img/Cap.png","null","image-keyboard-response","189","188803","0.0-19.0-0.36","Mozilla/5.0 (Windows NT 10.0; Win64; x64; rv:89.0) Gecko/20100101 Firefox/89.0","W1920,H1040","1920 x 1080","true","","7","36","0","0","0","25"
"4718","img/Cap.png","38","image-keyboard-response","190","193522","0.0-20.0-0.0","Mozilla/5.0 (Windows NT 10.0; Win64; x64; rv:89.0) Gecko/20100101 Firefox/89.0","W1920,H1040","1920 x 1080","true","","","","","","",""
"482","img/Cap.png","40","image-keyboard-response","191","194018","0.0-21.0-0.0","Mozilla/5.0 (Windows NT 10.0; Win64; x64; rv:89.0) Gecko/20100101 Firefox/89.0","W1920,H1040","1920 x 1080","true","","8","0","0","7","0","25"
"950","img/Boot.png","40","image-keyboard-response","192","194969","0.0-21.0-0.1","Mozilla/5.0 (Windows NT 10.0; Win64; x64; rv:89.0) Gecko/20100101 Firefox/89.0","W1920,H1040","1920 x 1080","true","","8","1","3","7","0","25"
"780","img/Cap.png","40","image-keyboard-response","193","195753","0.0-21.0-0.2","Mozilla/5.0 (Windows NT 10.0; Win64; x64; rv:89.0) Gecko/20100101 Firefox/89.0","W1920,H1040","1920 x 1080","true","","8","2","0","7","0","25"
"1194","img/Book.png","40","image-keyboard-response","194","196955","0.0-21.0-0.3","Mozilla/5.0 (Windows NT 10.0; Win64; x64; rv:89.0) Gecko/20100101 Firefox/89.0","W1920,H1040","1920 x 1080","true","","8","3","14","7","0","25"
"1361","img/Toaster.png","40","image-keyboard-response","195","198322","0.0-21.0-0.4","Mozilla/5.0 (Windows NT 10.0; Win64; x64; rv:89.0) Gecko/20100101 Firefox/89.0","W1920,H1040","1920 x 1080","true","","8","4","11","7","0","25"
"1115","img/Mug.png","40","image-keyboard-response","196","199442","0.0-21.0-0.5","Mozilla/5.0 (Windows NT 10.0; Win64; x64; rv:89.0) Gecko/20100101 Firefox/89.0","W1920,H1040","1920 x 1080","true","","8","5","13","7","0","25"
"1115","img/Jar.png","40","image-keyboard-response","197","200562","0.0-21.0-0.6","Mozilla/5.0 (Windows NT 10.0; Win64; x64; rv:89.0) Gecko/20100101 Firefox/89.0","W1920,H1040","1920 x 1080","true","","8","6","10","7","0","25"
"939","img/Mug.png","40","image-keyboard-response","198","201506","0.0-21.0-0.7","Mozilla/5.0 (Windows NT 10.0; Win64; x64; rv:89.0) Gecko/20100101 Firefox/89.0","W1920,H1040","1920 x 1080","true","","8","7","13","7","0","25"
"693","img/Book.png","40","image-keyboard-response","199","202202","0.0-21.0-0.8","Mozilla/5.0 (Windows NT 10.0; Win64; x64; rv:89.0) Gecko/20100101 Firefox/89.0","W1920,H1040","1920 x 1080","true","","8","8","14","7","0","25"
"1763","img/Clipboard.png","39","image-keyboard-response","200","203977","0.0-21.0-0.9","Mozilla/5.0 (Windows NT 10.0; Win64; x64; rv:89.0) Gecko/20100101 Firefox/89.0","W1920,H1040","1920 x 1080","true","","8","9","12","7","1","24"
"973","img/Jar.png","39","image-keyboard-response","201","204962","0.0-21.0-0.10","Mozilla/5.0 (Windows NT 10.0; Win64; x64; rv:89.0) Gecko/20100101 Firefox/89.0","W1920,H1040","1920 x 1080","true","","8","10","10","7","1","22"
"667","img/Balloon.png","39","image-keyboard-response","202","205634","0.0-21.0-0.11","Mozilla/5.0 (Windows NT 10.0; Win64; x64; rv:89.0) Gecko/20100101 Firefox/89.0","W1920,H1040","1920 x 1080","true","","8","11","9","7","1","19"
"null","img/Soapdispenser.png","null","image-keyboard-response","203","205649","0.0-21.0-0.12","Mozilla/5.0 (Windows NT 10.0; Win64; x64; rv:89.0) Gecko/20100101 Firefox/89.0","W1920,H1040","1920 x 1080","true","","8","12","7","7","0","34"
"1647","img/Soapdispenser.png","38","image-keyboard-response","204","207297","0.0-22.0-0.0","Mozilla/5.0 (Windows NT 10.0; Win64; x64; rv:89.0) Gecko/20100101 Firefox/89.0","W1920,H1040","1920 x 1080","true","","","","","","",""
"1077","img/Soapdispenser.png","40","image-keyboard-response","205","208377","0.0-23.0-0.0","Mozilla/5.0 (Windows NT 10.0; Win64; x64; rv:89.0) Gecko/20100101 Firefox/89.0","W1920,H1040","1920 x 1080","true","","9","0","7","4","0","34"
"677","img/Balloon.png","40","image-keyboard-response","206","209058","0.0-23.0-0.1","Mozilla/5.0 (Windows NT 10.0; Win64; x64; rv:89.0) Gecko/20100101 Firefox/89.0","W1920,H1040","1920 x 1080","true","","9","1","9","4","0","34"
"637","img/Floppy.png","40","image-keyboard-response","207","209697","0.0-23.0-0.2","Mozilla/5.0 (Windows NT 10.0; Win64; x64; rv:89.0) Gecko/20100101 Firefox/89.0","W1920,H1040","1920 x 1080","true","","9","2","6","4","0","34"
"725","img/Toiletpaper.png","40","image-keyboard-response","208","210425","0.0-23.0-0.3","Mozilla/5.0 (Windows NT 10.0; Win64; x64; rv:89.0) Gecko/20100101 Firefox/89.0","W1920,H1040","1920 x 1080","true","","9","3","5","4","0","34"
"674","img/Soapdispenser.png","40","image-keyboard-response","209","211106","0.0-23.0-0.4","Mozilla/5.0 (Windows NT 10.0; Win64; x64; rv:89.0) Gecko/20100101 Firefox/89.0","W1920,H1040","1920 x 1080","true","","9","4","7","4","0","34"
"740","img/Toiletpaper.png","40","image-keyboard-response","210","211850","0.0-23.0-0.5","Mozilla/5.0 (Windows NT 10.0; Win64; x64; rv:89.0) Gecko/20100101 Firefox/89.0","W1920,H1040","1920 x 1080","true","","9","5","5","4","0","34"
"693","img/Floppy.png","40","image-keyboard-response","211","212545","0.0-23.0-0.6","Mozilla/5.0 (Windows NT 10.0; Win64; x64; rv:89.0) Gecko/20100101 Firefox/89.0","W1920,H1040","1920 x 1080","true","","9","6","6","4","0","34"
"892","img/Basket.png","40","image-keyboard-response","212","213442","0.0-23.0-0.7","Mozilla/5.0 (Windows NT 10.0; Win64; x64; rv:89.0) Gecko/20100101 Firefox/89.0","W1920,H1040","1920 x 1080","true","","9","7","8","4","0","34"
"1038","img/Toiletpaper.png","40","image-keyboard-response","213","214489","0.0-23.0-0.8","Mozilla/5.0 (Windows NT 10.0; Win64; x64; rv:89.0) Gecko/20100101 Firefox/89.0","W1920,H1040","1920 x 1080","true","","9","8","5","4","0","34"
"1281","img/Soapdispenser.png","40","image-keyboard-response","214","215786","0.0-23.0-0.9","Mozilla/5.0 (Windows NT 10.0; Win64; x64; rv:89.0) Gecko/20100101 Firefox/89.0","W1920,H1040","1920 x 1080","true","","9","9","7","4","0","34"
"884","img/Basket.png","40","image-keyboard-response","215","216672","0.0-23.0-0.10","Mozilla/5.0 (Windows NT 10.0; Win64; x64; rv:89.0) Gecko/20100101 Firefox/89.0","W1920,H1040","1920 x 1080","true","","9","10","8","4","0","34"
"1776","img/Floppy.png","40","image-keyboard-response","216","218450","0.0-23.0-0.11","Mozilla/5.0 (Windows NT 10.0; Win64; x64; rv:89.0) Gecko/20100101 Firefox/89.0","W1920,H1040","1920 x 1080","true","","9","11","6","4","0","34"
"892","img/Toiletpaper.png","40","image-keyboard-response","217","219346","0.0-23.0-0.12","Mozilla/5.0 (Windows NT 10.0; Win64; x64; rv:89.0) Gecko/20100101 Firefox/89.0","W1920,H1040","1920 x 1080","true","","9","12","5","4","0","34"
"null","img/Lightbulb.png","null","image-keyboard-response","218","219359","0.0-23.0-0.13","Mozilla/5.0 (Windows NT 10.0; Win64; x64; rv:89.0) Gecko/20100101 Firefox/89.0","W1920,H1040","1920 x 1080","true","","9","13","4","4","0","34"
"1954","img/Lightbulb.png","38","image-keyboard-response","219","221314","0.0-24.0-0.0","Mozilla/5.0 (Windows NT 10.0; Win64; x64; rv:89.0) Gecko/20100101 Firefox/89.0","W1920,H1040","1920 x 1080","true","","","","","","",""
"404","img/Lightbulb.png","39","image-keyboard-response","220","221722","0.0-25.0-0.0","Mozilla/5.0 (Windows NT 10.0; Win64; x64; rv:89.0) Gecko/20100101 Firefox/89.0","W1920,H1040","1920 x 1080","true","","10","0","4","5","1","33"
"null","img/Toiletpaper.png","null","image-keyboard-response","221","221730","0.0-25.0-0.1","Mozilla/5.0 (Windows NT 10.0; Win64; x64; rv:89.0) Gecko/20100101 Firefox/89.0","W1920,H1040","1920 x 1080","true","","10","1","5","5","0","38"
"9004","img/Toiletpaper.png","38","image-keyboard-response","222","230738","0.0-26.0-0.0","Mozilla/5.0 (Windows NT 10.0; Win64; x64; rv:89.0) Gecko/20100101 Firefox/89.0","W1920,H1040","1920 x 1080","true","","","","","","",""
"504","img/Toiletpaper.png","40","image-keyboard-response","223","231274","0.0-27.0-0.0","Mozilla/5.0 (Windows NT 10.0; Win64; x64; rv:89.0) Gecko/20100101 Firefox/89.0","W1920,H1040","1920 x 1080","true","","11","0","5","2","0","38"
"1060","img/Floppy.png","40","image-keyboard-response","224","232336","0.0-27.0-0.1","Mozilla/5.0 (Windows NT 10.0; Win64; x64; rv:89.0) Gecko/20100101 Firefox/89.0","W1920,H1040","1920 x 1080","true","","11","1","6","2","0","38"
"2104","img/Basket.png","40","image-keyboard-response","225","234442","0.0-27.0-0.2","Mozilla/5.0 (Windows NT 10.0; Win64; x64; rv:89.0) Gecko/20100101 Firefox/89.0","W1920,H1040","1920 x 1080","true","","11","2","8","2","0","38"
"876","img/Floppy.png","40","image-keyboard-response","226","235321","0.0-27.0-0.3","Mozilla/5.0 (Windows NT 10.0; Win64; x64; rv:89.0) Gecko/20100101 Firefox/89.0","W1920,H1040","1920 x 1080","true","","11","3","6","2","0","38"
"941","img/Balloon.png","40","image-keyboard-response","227","236265","0.0-27.0-0.4","Mozilla/5.0 (Windows NT 10.0; Win64; x64; rv:89.0) Gecko/20100101 Firefox/89.0","W1920,H1040","1920 x 1080","true","","11","4","9","2","0","38"
"813","img/Jar.png","40","image-keyboard-response","228","237081","0.0-27.0-0.5","Mozilla/5.0 (Windows NT 10.0; Win64; x64; rv:89.0) Gecko/20100101 Firefox/89.0","W1920,H1040","1920 x 1080","true","","11","5","10","2","0","38"
"828","img/Mug.png","40","image-keyboard-response","229","237914","0.0-27.0-0.6","Mozilla/5.0 (Windows NT 10.0; Win64; x64; rv:89.0) Gecko/20100101 Firefox/89.0","W1920,H1040","1920 x 1080","true","","11","6","13","2","0","38"
"811","img/Toaster.png","40","image-keyboard-response","230","238730","0.0-27.0-0.7","Mozilla/5.0 (Windows NT 10.0; Win64; x64; rv:89.0) Gecko/20100101 Firefox/89.0","W1920,H1040","1920 x 1080","true","","11","7","11","2","0","38"
"1333","img/Jar.png","40","image-keyboard-response","231","240065","0.0-27.0-0.8","Mozilla/5.0 (Windows NT 10.0; Win64; x64; rv:89.0) Gecko/20100101 Firefox/89.0","W1920,H1040","1920 x 1080","true","","11","8","10","2","0","38"
"829","img/Mug.png","40","image-keyboard-response","232","240898","0.0-27.0-0.9","Mozilla/5.0 (Windows NT 10.0; Win64; x64; rv:89.0) Gecko/20100101 Firefox/89.0","W1920,H1040","1920 x 1080","true","","11","9","13","2","0","38"
"897","img/Jar.png","40","image-keyboard-response","233","241810","0.0-27.0-0.10","Mozilla/5.0 (Windows NT 10.0; Win64; x64; rv:89.0) Gecko/20100101 Firefox/89.0","W1920,H1040","1920 x 1080","true","","11","10","10","2","0","38"
"683","img/Toaster.png","40","image-keyboard-response","234","242497","0.0-27.0-0.11","Mozilla/5.0 (Windows NT 10.0; Win64; x64; rv:89.0) Gecko/20100101 Firefox/89.0","W1920,H1040","1920 x 1080","true","","11","11","11","2","0","38"
"881","img/Book.png","40","image-keyboard-response","235","243386","0.0-27.0-0.12","Mozilla/5.0 (Windows NT 10.0; Win64; x64; rv:89.0) Gecko/20100101 Firefox/89.0","W1920,H1040","1920 x 1080","true","","11","12","14","2","0","38"
"1136","img/Cap.png","39","image-keyboard-response","236","244529","0.0-27.0-0.13","Mozilla/5.0 (Windows NT 10.0; Win64; x64; rv:89.0) Gecko/20100101 Firefox/89.0","W1920,H1040","1920 x 1080","true","","11","13","0","2","1","37"
"696","img/Book.png","37","image-keyboard-response","237","245226","0.0-27.0-0.14","Mozilla/5.0 (Windows NT 10.0; Win64; x64; rv:89.0) Gecko/20100101 Firefox/89.0","W1920,H1040","1920 x 1080","true","","11","14","14","2","-1","37"
"957","img/Cap.png","40","image-keyboard-response","238","246186","0.0-27.0-0.15","Mozilla/5.0 (Windows NT 10.0; Win64; x64; rv:89.0) Gecko/20100101 Firefox/89.0","W1920,H1040","1920 x 1080","true","","11","15","0","2","0","37"
"969","img/Ovenmitt.png","39","image-keyboard-response","239","247162","0.0-27.0-0.16","Mozilla/5.0 (Windows NT 10.0; Win64; x64; rv:89.0) Gecko/20100101 Firefox/89.0","W1920,H1040","1920 x 1080","true","","11","16","1","2","1","36"
"null","img/Fryingpan.png","null","image-keyboard-response","240","247211","0.0-27.0-0.17","Mozilla/5.0 (Windows NT 10.0; Win64; x64; rv:89.0) Gecko/20100101 Firefox/89.0","W1920,H1040","1920 x 1080","true","","11","17","2","2","0","41"
"4958","img/Fryingpan.png","38","image-keyboard-response","241","252170","0.0-28.0-0.0","Mozilla/5.0 (Windows NT 10.0; Win64; x64; rv:89.0) Gecko/20100101 Firefox/89.0","W1920,H1040","1920 x 1080","true","","","","","","",""
"772","img/Fryingpan.png","40","image-keyboard-response","242","252953","0.0-29.0-0.0","Mozilla/5.0 (Windows NT 10.0; Win64; x64; rv:89.0) Gecko/20100101 Firefox/89.0","W1920,H1040","1920 x 1080","true","","12","0","2","12","0","41"
"900","img/Ovenmitt.png","40","image-keyboard-response","243","253857","0.0-29.0-0.1","Mozilla/5.0 (Windows NT 10.0; Win64; x64; rv:89.0) Gecko/20100101 Firefox/89.0","W1920,H1040","1920 x 1080","true","","12","1","1","12","0","41"
"1468","img/Lightbulb.png","40","image-keyboard-response","244","255330","0.0-29.0-0.2","Mozilla/5.0 (Windows NT 10.0; Win64; x64; rv:89.0) Gecko/20100101 Firefox/89.0","W1920,H1040","1920 x 1080","true","","12","2","4","12","0","41"
"732","img/Ovenmitt.png","40","image-keyboard-response","245","256066","0.0-29.0-0.3","Mozilla/5.0 (Windows NT 10.0; Win64; x64; rv:89.0) Gecko/20100101 Firefox/89.0","W1920,H1040","1920 x 1080","true","","12","3","1","12","0","41"
"628","img/Cap.png","40","image-keyboard-response","246","256698","0.0-29.0-0.4","Mozilla/5.0 (Windows NT 10.0; Win64; x64; rv:89.0) Gecko/20100101 Firefox/89.0","W1920,H1040","1920 x 1080","true","","12","4","0","12","0","41"
"670","img/Ovenmitt.png","40","image-keyboard-response","247","257370","0.0-29.0-0.5","Mozilla/5.0 (Windows NT 10.0; Win64; x64; rv:89.0) Gecko/20100101 Firefox/89.0","W1920,H1040","1920 x 1080","true","","12","5","1","12","0","41"
"989","img/Lightbulb.png","40","image-keyboard-response","248","258370","0.0-29.0-0.6","Mozilla/5.0 (Windows NT 10.0; Win64; x64; rv:89.0) Gecko/20100101 Firefox/89.0","W1920,H1040","1920 x 1080","true","","12","6","4","12","0","41"
"677","img/Toiletpaper.png","39","image-keyboard-response","249","259050","0.0-29.0-0.7","Mozilla/5.0 (Windows NT 10.0; Win64; x64; rv:89.0) Gecko/20100101 Firefox/89.0","W1920,H1040","1920 x 1080","true","","12","7","5","12","1","40"
"829","img/Floppy.png","40","image-keyboard-response","250","259882","0.0-29.0-0.8","Mozilla/5.0 (Windows NT 10.0; Win64; x64; rv:89.0) Gecko/20100101 Firefox/89.0","W1920,H1040","1920 x 1080","true","","12","8","6","12","0","39"
"1171","img/Balloon.png","37","image-keyboard-response","251","261057","0.0-29.0-0.9","Mozilla/5.0 (Windows NT 10.0; Win64; x64; rv:89.0) Gecko/20100101 Firefox/89.0","W1920,H1040","1920 x 1080","true","","12","9","9","12","-1","39"
"725","img/Floppy.png","40","image-keyboard-response","252","261785","0.0-29.0-0.10","Mozilla/5.0 (Windows NT 10.0; Win64; x64; rv:89.0) Gecko/20100101 Firefox/89.0","W1920,H1040","1920 x 1080","true","","12","10","6","12","0","39"
"772","img/Soapdispenser.png","39","image-keyboard-response","253","262562","0.0-29.0-0.11","Mozilla/5.0 (Windows NT 10.0; Win64; x64; rv:89.0) Gecko/20100101 Firefox/89.0","W1920,H1040","1920 x 1080","true","","12","11","7","12","1","38"
"1100","img/Toiletpaper.png","39","image-keyboard-response","254","263674","0.0-29.0-0.12","Mozilla/5.0 (Windows NT 10.0; Win64; x64; rv:89.0) Gecko/20100101 Firefox/89.0","W1920,H1040","1920 x 1080","true","","12","12","5","12","1","36"
"779","img/Lightbulb.png","39","image-keyboard-response","255","264456","0.0-29.0-0.13","Mozilla/5.0 (Windows NT 10.0; Win64; x64; rv:89.0) Gecko/20100101 Firefox/89.0","W1920,H1040","1920 x 1080","true","","12","13","4","12","1","33"
"951","img/Fryingpan.png","37","image-keyboard-response","256","265410","0.0-29.0-0.14","Mozilla/5.0 (Windows NT 10.0; Win64; x64; rv:89.0) Gecko/20100101 Firefox/89.0","W1920,H1040","1920 x 1080","true","","12","14","2","12","-1","31"
"629","img/Ovenmitt.png","37","image-keyboard-response","257","266042","0.0-29.0-0.15","Mozilla/5.0 (Windows NT 10.0; Win64; x64; rv:89.0) Gecko/20100101 Firefox/89.0","W1920,H1040","1920 x 1080","true","","12","15","1","12","-1","30"
"1324","img/Lightbulb.png","37","image-keyboard-response","258","267369","0.0-29.0-0.16","Mozilla/5.0 (Windows NT 10.0; Win64; x64; rv:89.0) Gecko/20100101 Firefox/89.0","W1920,H1040","1920 x 1080","true","","12","16","4","12","-1","30"
"1836","img/Toiletpaper.png","40","image-keyboard-response","259","269210","0.0-29.0-0.17","Mozilla/5.0 (Windows NT 10.0; Win64; x64; rv:89.0) Gecko/20100101 Firefox/89.0","W1920,H1040","1920 x 1080","true","","12","17","5","12","0","30"
"1356","img/Lightbulb.png","40","image-keyboard-response","260","270578","0.0-29.0-0.18","Mozilla/5.0 (Windows NT 10.0; Win64; x64; rv:89.0) Gecko/20100101 Firefox/89.0","W1920,H1040","1920 x 1080","true","","12","18","4","12","0","30"
"956","img/Ovenmitt.png","40","image-keyboard-response","261","271537","0.0-29.0-0.19","Mozilla/5.0 (Windows NT 10.0; Win64; x64; rv:89.0) Gecko/20100101 Firefox/89.0","W1920,H1040","1920 x 1080","true","","12","19","1","12","0","30"
"756","img/Boot.png","39","image-keyboard-response","262","272298","0.0-29.0-0.20","Mozilla/5.0 (Windows NT 10.0; Win64; x64; rv:89.0) Gecko/20100101 Firefox/89.0","W1920,H1040","1920 x 1080","true","","12","20","3","12","1","29"
"732","img/Lightbulb.png","39","image-keyboard-response","263","273034","0.0-29.0-0.21","Mozilla/5.0 (Windows NT 10.0; Win64; x64; rv:89.0) Gecko/20100101 Firefox/89.0","W1920,H1040","1920 x 1080","true","","12","21","4","12","1","27"
"612","img/Toiletpaper.png","37","image-keyboard-response","264","273657","0.0-29.0-0.22","Mozilla/5.0 (Windows NT 10.0; Win64; x64; rv:89.0) Gecko/20100101 Firefox/89.0","W1920,H1040","1920 x 1080","true","","12","22","5","12","-1","26"
"564","img/Lightbulb.png","37","image-keyboard-response","265","274225","0.0-29.0-0.23","Mozilla/5.0 (Windows NT 10.0; Win64; x64; rv:89.0) Gecko/20100101 Firefox/89.0","W1920,H1040","1920 x 1080","true","","12","23","4","12","-1","26"
"788","img/Boot.png","39","image-keyboard-response","266","275018","0.0-29.0-0.24","Mozilla/5.0 (Windows NT 10.0; Win64; x64; rv:89.0) Gecko/20100101 Firefox/89.0","W1920,H1040","1920 x 1080","true","","12","24","3","12","1","25"
"708","img/Ovenmitt.png","37","image-keyboard-response","267","275730","0.0-29.0-0.25","Mozilla/5.0 (Windows NT 10.0; Win64; x64; rv:89.0) Gecko/20100101 Firefox/89.0","W1920,H1040","1920 x 1080","true","","12","25","1","12","-1","25"
"587","img/Boot.png","40","image-keyboard-response","268","276322","0.0-29.0-0.26","Mozilla/5.0 (Windows NT 10.0; Win64; x64; rv:89.0) Gecko/20100101 Firefox/89.0","W1920,H1040","1920 x 1080","true","","12","26","3","12","0","25"
"988","img/Fryingpan.png","40","image-keyboard-response","269","277314","0.0-29.0-0.27","Mozilla/5.0 (Windows NT 10.0; Win64; x64; rv:89.0) Gecko/20100101 Firefox/89.0","W1920,H1040","1920 x 1080","true","","12","27","2","12","0","25"
"725","img/Ovenmitt.png","40","image-keyboard-response","270","278042","0.0-29.0-0.28","Mozilla/5.0 (Windows NT 10.0; Win64; x64; rv:89.0) Gecko/20100101 Firefox/89.0","W1920,H1040","1920 x 1080","true","","12","28","1","12","0","25"
"772","img/Fryingpan.png","40","image-keyboard-response","271","278817","0.0-29.0-0.29","Mozilla/5.0 (Windows NT 10.0; Win64; x64; rv:89.0) Gecko/20100101 Firefox/89.0","W1920,H1040","1920 x 1080","true","","12","29","2","12","0","25"
"917","img/Cap.png","40","image-keyboard-response","272","279738","0.0-29.0-0.30","Mozilla/5.0 (Windows NT 10.0; Win64; x64; rv:89.0) Gecko/20100101 Firefox/89.0","W1920,H1040","1920 x 1080","true","","12","30","0","12","0","25"
"1028","img/Fryingpan.png","40","image-keyboard-response","273","280778","0.0-29.0-0.31","Mozilla/5.0 (Windows NT 10.0; Win64; x64; rv:89.0) Gecko/20100101 Firefox/89.0","W1920,H1040","1920 x 1080","true","","12","31","2","12","0","25"
"1012","img/Boot.png","40","image-keyboard-response","274","281794","0.0-29.0-0.32","Mozilla/5.0 (Windows NT 10.0; Win64; x64; rv:89.0) Gecko/20100101 Firefox/89.0","W1920,H1040","1920 x 1080","true","","12","32","3","12","0","25"
"1636","img/Cap.png","40","image-keyboard-response","275","283434","0.0-29.0-0.33","Mozilla/5.0 (Windows NT 10.0; Win64; x64; rv:89.0) Gecko/20100101 Firefox/89.0","W1920,H1040","1920 x 1080","true","","12","33","0","12","0","25"
"816","img/Ovenmitt.png","40","image-keyboard-response","276","284265","0.0-29.0-0.34","Mozilla/5.0 (Windows NT 10.0; Win64; x64; rv:89.0) Gecko/20100101 Firefox/89.0","W1920,H1040","1920 x 1080","true","","12","34","1","12","0","25"
"775","img/Fryingpan.png","40","image-keyboard-response","277","285040","0.0-29.0-0.35","Mozilla/5.0 (Windows NT 10.0; Win64; x64; rv:89.0) Gecko/20100101 Firefox/89.0","W1920,H1040","1920 x 1080","true","","12","35","2","12","0","25"
"665","img/Ovenmitt.png","40","image-keyboard-response","278","285706","0.0-29.0-0.36","Mozilla/5.0 (Windows NT 10.0; Win64; x64; rv:89.0) Gecko/20100101 Firefox/89.0","W1920,H1040","1920 x 1080","true","","12","36","1","12","0","25"
"764","img/Cap.png","40","image-keyboard-response","279","286474","0.0-29.0-0.37","Mozilla/5.0 (Windows NT 10.0; Win64; x64; rv:89.0) Gecko/20100101 Firefox/89.0","W1920,H1040","1920 x 1080","true","","12","37","0","12","0","25"
"692","img/Boot.png","40","image-keyboard-response","280","287170","0.0-29.0-0.38","Mozilla/5.0 (Windows NT 10.0; Win64; x64; rv:89.0) Gecko/20100101 Firefox/89.0","W1920,H1040","1920 x 1080","true","","12","38","3","12","0","25"
"982","img/Ovenmitt.png","40","image-keyboard-response","281","288154","0.0-29.0-0.39","Mozilla/5.0 (Windows NT 10.0; Win64; x64; rv:89.0) Gecko/20100101 Firefox/89.0","W1920,H1040","1920 x 1080","true","","12","39","1","12","0","25"
"715","img/Boot.png","40","image-keyboard-response","282","288874","0.0-29.0-0.40","Mozilla/5.0 (Windows NT 10.0; Win64; x64; rv:89.0) Gecko/20100101 Firefox/89.0","W1920,H1040","1920 x 1080","true","","12","40","3","12","0","25"
"1260","img/Lightbulb.png","40","image-keyboard-response","283","290137","0.0-29.0-0.41","Mozilla/5.0 (Windows NT 10.0; Win64; x64; rv:89.0) Gecko/20100101 Firefox/89.0","W1920,H1040","1920 x 1080","true","","12","41","4","12","0","25"
"618","img/Ovenmitt.png","40","image-keyboard-response","284","290762","0.0-29.0-0.42","Mozilla/5.0 (Windows NT 10.0; Win64; x64; rv:89.0) Gecko/20100101 Firefox/89.0","W1920,H1040","1920 x 1080","true","","12","42","1","12","0","25"
"698","img/Cap.png","40","image-keyboard-response","285","291466","0.0-29.0-0.43","Mozilla/5.0 (Windows NT 10.0; Win64; x64; rv:89.0) Gecko/20100101 Firefox/89.0","W1920,H1040","1920 x 1080","true","","12","43","0","12","0","25"
"802","img/Book.png","39","image-keyboard-response","286","292274","0.0-29.0-0.44","Mozilla/5.0 (Windows NT 10.0; Win64; x64; rv:89.0) Gecko/20100101 Firefox/89.0","W1920,H1040","1920 x 1080","true","","12","44","14","12","1","24"
"704","img/Toaster.png","39","image-keyboard-response","287","292986","0.0-29.0-0.45","Mozilla/5.0 (Windows NT 10.0; Win64; x64; rv:89.0) Gecko/20100101 Firefox/89.0","W1920,H1040","1920 x 1080","true","","12","45","11","12","1","22"
"633","img/Mug.png","39","image-keyboard-response","288","293625","0.0-29.0-0.46","Mozilla/5.0 (Windows NT 10.0; Win64; x64; rv:89.0) Gecko/20100101 Firefox/89.0","W1920,H1040","1920 x 1080","true","","12","46","13","12","1","19"
"605","img/Book.png","39","image-keyboard-response","289","294241","0.0-29.0-0.47","Mozilla/5.0 (Windows NT 10.0; Win64; x64; rv:89.0) Gecko/20100101 Firefox/89.0","W1920,H1040","1920 x 1080","true","","12","47","14","12","1","15"
"620","img/Toaster.png","39","image-keyboard-response","290","294866","0.0-29.0-0.48","Mozilla/5.0 (Windows NT 10.0; Win64; x64; rv:89.0) Gecko/20100101 Firefox/89.0","W1920,H1040","1920 x 1080","true","","12","48","11","12","1","10"
"null","img/Clipboard.png","null","image-keyboard-response","291","294889","0.0-29.0-0.49","Mozilla/5.0 (Windows NT 10.0; Win64; x64; rv:89.0) Gecko/20100101 Firefox/89.0","W1920,H1040","1920 x 1080","true","","12","49","12","12","0","35"
"1975","img/Clipboard.png","38","image-keyboard-response","292","296865","0.0-30.0-0.0","Mozilla/5.0 (Windows NT 10.0; Win64; x64; rv:89.0) Gecko/20100101 Firefox/89.0","W1920,H1040","1920 x 1080","true","","","","","","",""
"2572","img/Clipboard.png","40","image-keyboard-response","293","299442","0.0-31.0-0.0","Mozilla/5.0 (Windows NT 10.0; Win64; x64; rv:89.0) Gecko/20100101 Firefox/89.0","W1920,H1040","1920 x 1080","true","","13","0","12","5","0","35"
"652","img/Book.png","40","image-keyboard-response","294","300097","0.0-31.0-0.1","Mozilla/5.0 (Windows NT 10.0; Win64; x64; rv:89.0) Gecko/20100101 Firefox/89.0","W1920,H1040","1920 x 1080","true","","13","1","14","5","0","35"
"700","img/Toaster.png","40","image-keyboard-response","295","300801","0.0-31.0-0.2","Mozilla/5.0 (Windows NT 10.0; Win64; x64; rv:89.0) Gecko/20100101 Firefox/89.0","W1920,H1040","1920 x 1080","true","","13","2","11","5","0","35"
"675","img/Jar.png","40","image-keyboard-response","296","301482","0.0-31.0-0.3","Mozilla/5.0 (Windows NT 10.0; Win64; x64; rv:89.0) Gecko/20100101 Firefox/89.0","W1920,H1040","1920 x 1080","true","","13","3","10","5","0","35"
"708","img/Clipboard.png","40","image-keyboard-response","297","302194","0.0-31.0-0.4","Mozilla/5.0 (Windows NT 10.0; Win64; x64; rv:89.0) Gecko/20100101 Firefox/89.0","W1920,H1040","1920 x 1080","true","","13","4","12","5","0","35"
"758","img/Jar.png","40","image-keyboard-response","298","302954","0.0-31.0-0.5","Mozilla/5.0 (Windows NT 10.0; Win64; x64; rv:89.0) Gecko/20100101 Firefox/89.0","W1920,H1040","1920 x 1080","true","","13","5","10","5","0","35"
"868","img/Clipboard.png","40","image-keyboard-response","299","303825","0.0-31.0-0.6","Mozilla/5.0 (Windows NT 10.0; Win64; x64; rv:89.0) Gecko/20100101 Firefox/89.0","W1920,H1040","1920 x 1080","true","","13","6","12","5","0","35"
"897","img/Toaster.png","40","image-keyboard-response","300","304738","0.0-31.0-0.7","Mozilla/5.0 (Windows NT 10.0; Win64; x64; rv:89.0) Gecko/20100101 Firefox/89.0","W1920,H1040","1920 x 1080","true","","13","7","11","5","0","35"
"572","img/Jar.png","40","image-keyboard-response","301","305314","0.0-31.0-0.8","Mozilla/5.0 (Windows NT 10.0; Win64; x64; rv:89.0) Gecko/20100101 Firefox/89.0","W1920,H1040","1920 x 1080","true","","13","8","10","5","0","35"
"490","img/Toaster.png","40","image-keyboard-response","302","305810","0.0-31.0-0.9","Mozilla/5.0 (Windows NT 10.0; Win64; x64; rv:89.0) Gecko/20100101 Firefox/89.0","W1920,H1040","1920 x 1080","true","","13","9","11","5","0","35"
"642","img/Book.png","40","image-keyboard-response","303","306458","0.0-31.0-0.10","Mozilla/5.0 (Windows NT 10.0; Win64; x64; rv:89.0) Gecko/20100101 Firefox/89.0","W1920,H1040","1920 x 1080","true","","13","10","14","5","0","35"
"549","img/Toaster.png","40","image-keyboard-response","304","307009","0.0-31.0-0.11","Mozilla/5.0 (Windows NT 10.0; Win64; x64; rv:89.0) Gecko/20100101 Firefox/89.0","W1920,H1040","1920 x 1080","true","","13","11","11","5","0","35"
"570","img/Jar.png","40","image-keyboard-response","305","307586","0.0-31.0-0.12","Mozilla/5.0 (Windows NT 10.0; Win64; x64; rv:89.0) Gecko/20100101 Firefox/89.0","W1920,H1040","1920 x 1080","true","","13","12","10","5","0","35"
"452","img/Clipboard.png","40","image-keyboard-response","306","308058","0.0-31.0-0.13","Mozilla/5.0 (Windows NT 10.0; Win64; x64; rv:89.0) Gecko/20100101 Firefox/89.0","W1920,H1040","1920 x 1080","true","","13","13","12","5","0","35"
"493","img/Book.png","40","image-keyboard-response","307","308554","0.0-31.0-0.14","Mozilla/5.0 (Windows NT 10.0; Win64; x64; rv:89.0) Gecko/20100101 Firefox/89.0","W1920,H1040","1920 x 1080","true","","13","14","14","5","0","35"
"500","img/Toaster.png","40","image-keyboard-response","308","309058","0.0-31.0-0.15","Mozilla/5.0 (Windows NT 10.0; Win64; x64; rv:89.0) Gecko/20100101 Firefox/89.0","W1920,H1040","1920 x 1080","true","","13","15","11","5","0","35"
"534","img/Jar.png","40","image-keyboard-response","309","309594","0.0-31.0-0.16","Mozilla/5.0 (Windows NT 10.0; Win64; x64; rv:89.0) Gecko/20100101 Firefox/89.0","W1920,H1040","1920 x 1080","true","","13","16","10","5","0","35"
"642","img/Toaster.png","40","image-keyboard-response","310","310242","0.0-31.0-0.17","Mozilla/5.0 (Windows NT 10.0; Win64; x64; rv:89.0) Gecko/20100101 Firefox/89.0","W1920,H1040","1920 x 1080","true","","13","17","11","5","0","35"
"612","img/Jar.png","40","image-keyboard-response","311","310857","0.0-31.0-0.18","Mozilla/5.0 (Windows NT 10.0; Win64; x64; rv:89.0) Gecko/20100101 Firefox/89.0","W1920,H1040","1920 x 1080","true","","13","18","10","5","0","35"
"781","img/Mug.png","40","image-keyboard-response","312","311642","0.0-31.0-0.19","Mozilla/5.0 (Windows NT 10.0; Win64; x64; rv:89.0) Gecko/20100101 Firefox/89.0","W1920,H1040","1920 x 1080","true","","13","19","13","5","0","35"
"748","img/Clipboard.png","40","image-keyboard-response","313","312394","0.0-31.0-0.20","Mozilla/5.0 (Windows NT 10.0; Win64; x64; rv:89.0) Gecko/20100101 Firefox/89.0","W1920,H1040","1920 x 1080","true","","13","20","12","5","0","35"
"693","img/Book.png","40","image-keyboard-response","314","313090","0.0-31.0-0.21","Mozilla/5.0 (Windows NT 10.0; Win64; x64; rv:89.0) Gecko/20100101 Firefox/89.0","W1920,H1040","1920 x 1080","true","","13","21","14","5","0","35"
"620","img/Toaster.png","40","image-keyboard-response","315","313714","0.0-31.0-0.22","Mozilla/5.0 (Windows NT 10.0; Win64; x64; rv:89.0) Gecko/20100101 Firefox/89.0","W1920,H1040","1920 x 1080","true","","13","22","11","5","0","35"
"644","img/Book.png","40","image-keyboard-response","316","314362","0.0-31.0-0.23","Mozilla/5.0 (Windows NT 10.0; Win64; x64; rv:89.0) Gecko/20100101 Firefox/89.0","W1920,H1040","1920 x 1080","true","","13","23","14","5","0","35"
"709","img/Clipboard.png","40","image-keyboard-response","317","315089","0.0-31.0-0.24","Mozilla/5.0 (Windows NT 10.0; Win64; x64; rv:89.0) Gecko/20100101 Firefox/89.0","W1920,H1040","1920 x 1080","true","","13","24","12","5","0","35"
"583","img/Toaster.png","40","image-keyboard-response","318","315674","0.0-31.0-0.25","Mozilla/5.0 (Windows NT 10.0; Win64; x64; rv:89.0) Gecko/20100101 Firefox/89.0","W1920,H1040","1920 x 1080","true","","13","25","11","5","0","35"
"660","img/Jar.png","40","image-keyboard-response","319","316338","0.0-31.0-0.26","Mozilla/5.0 (Windows NT 10.0; Win64; x64; rv:89.0) Gecko/20100101 Firefox/89.0","W1920,H1040","1920 x 1080","true","","13","26","10","5","0","35"
"596","img/Mug.png","40","image-keyboard-response","320","316937","0.0-31.0-0.27","Mozilla/5.0 (Windows NT 10.0; Win64; x64; rv:89.0) Gecko/20100101 Firefox/89.0","W1920,H1040","1920 x 1080","true","","13","27","13","5","0","35"
"581","img/Toaster.png","40","image-keyboard-response","321","317522","0.0-31.0-0.28","Mozilla/5.0 (Windows NT 10.0; Win64; x64; rv:89.0) Gecko/20100101 Firefox/89.0","W1920,H1040","1920 x 1080","true","","13","28","11","5","0","35"
"836","img/Clipboard.png","40","image-keyboard-response","322","318362","0.0-31.0-0.29","Mozilla/5.0 (Windows NT 10.0; Win64; x64; rv:89.0) Gecko/20100101 Firefox/89.0","W1920,H1040","1920 x 1080","true","","13","29","12","5","0","35"
"548","img/Book.png","40","image-keyboard-response","323","318914","0.0-31.0-0.30","Mozilla/5.0 (Windows NT 10.0; Win64; x64; rv:89.0) Gecko/20100101 Firefox/89.0","W1920,H1040","1920 x 1080","true","","13","30","14","5","0","35"
"568","img/Toaster.png","40","image-keyboard-response","324","319490","0.0-31.0-0.31","Mozilla/5.0 (Windows NT 10.0; Win64; x64; rv:89.0) Gecko/20100101 Firefox/89.0","W1920,H1040","1920 x 1080","true","","13","31","11","5","0","35"
"610","img/Mug.png","40","image-keyboard-response","325","320106","0.0-31.0-0.32","Mozilla/5.0 (Windows NT 10.0; Win64; x64; rv:89.0) Gecko/20100101 Firefox/89.0","W1920,H1040","1920 x 1080","true","","13","32","13","5","0","35"
"610","img/Jar.png","40","image-keyboard-response","326","320722","0.0-31.0-0.33","Mozilla/5.0 (Windows NT 10.0; Win64; x64; rv:89.0) Gecko/20100101 Firefox/89.0","W1920,H1040","1920 x 1080","true","","13","33","10","5","0","35"
"580","img/Toaster.png","40","image-keyboard-response","327","321306","0.0-31.0-0.34","Mozilla/5.0 (Windows NT 10.0; Win64; x64; rv:89.0) Gecko/20100101 Firefox/89.0","W1920,H1040","1920 x 1080","true","","13","34","11","5","0","35"
"614","img/Jar.png","40","image-keyboard-response","328","321922","0.0-31.0-0.35","Mozilla/5.0 (Windows NT 10.0; Win64; x64; rv:89.0) Gecko/20100101 Firefox/89.0","W1920,H1040","1920 x 1080","true","","13","35","10","5","0","35"
"1618","img/Balloon.png","40","image-keyboard-response","329","323546","0.0-31.0-0.36","Mozilla/5.0 (Windows NT 10.0; Win64; x64; rv:89.0) Gecko/20100101 Firefox/89.0","W1920,H1040","1920 x 1080","true","","13","36","9","5","0","35"
"666","img/Floppy.png","39","image-keyboard-response","330","324218","0.0-31.0-0.37","Mozilla/5.0 (Windows NT 10.0; Win64; x64; rv:89.0) Gecko/20100101 Firefox/89.0","W1920,H1040","1920 x 1080","true","","13","37","6","5","1","34"
"549","img/Soapdispenser.png","39","image-keyboard-response","331","324778","0.0-31.0-0.38","Mozilla/5.0 (Windows NT 10.0; Win64; x64; rv:89.0) Gecko/20100101 Firefox/89.0","W1920,H1040","1920 x 1080","true","","13","38","7","5","1","32"
"462","img/Basket.png","39","image-keyboard-response","332","325274","0.0-31.0-0.39","Mozilla/5.0 (Windows NT 10.0; Win64; x64; rv:89.0) Gecko/20100101 Firefox/89.0","W1920,H1040","1920 x 1080","true","","13","39","8","5","1","29"
"null","img/Toiletpaper.png","null","image-keyboard-response","333","325281","0.0-31.0-0.40","Mozilla/5.0 (Windows NT 10.0; Win64; x64; rv:89.0) Gecko/20100101 Firefox/89.0","W1920,H1040","1920 x 1080","true","","13","40","5","5","0","44"
"1664","img/Toiletpaper.png","38","image-keyboard-response","334","326946","0.0-32.0-0.0","Mozilla/5.0 (Windows NT 10.0; Win64; x64; rv:89.0) Gecko/20100101 Firefox/89.0","W1920,H1040","1920 x 1080","true","","","","","","",""
"388","img/Toiletpaper.png","40","image-keyboard-response","335","327337","0.0-33.0-0.0","Mozilla/5.0 (Windows NT 10.0; Win64; x64; rv:89.0) Gecko/20100101 Firefox/89.0","W1920,H1040","1920 x 1080","true","","14","0","5","10","0","44"
"733","img/Soapdispenser.png","40","image-keyboard-response","336","328073","0.0-33.0-0.1","Mozilla/5.0 (Windows NT 10.0; Win64; x64; rv:89.0) Gecko/20100101 Firefox/89.0","W1920,H1040","1920 x 1080","true","","14","1","7","10","0","44"
"660","img/Floppy.png","40","image-keyboard-response","337","328737","0.0-33.0-0.2","Mozilla/5.0 (Windows NT 10.0; Win64; x64; rv:89.0) Gecko/20100101 Firefox/89.0","W1920,H1040","1920 x 1080","true","","14","2","6","10","0","44"
"523","img/Basket.png","40","image-keyboard-response","338","329266","0.0-33.0-0.3","Mozilla/5.0 (Windows NT 10.0; Win64; x64; rv:89.0) Gecko/20100101 Firefox/89.0","W1920,H1040","1920 x 1080","true","","14","3","8","10","0","44"
"524","img/Soapdispenser.png","40","image-keyboard-response","339","329794","0.0-33.0-0.4","Mozilla/5.0 (Windows NT 10.0; Win64; x64; rv:89.0) Gecko/20100101 Firefox/89.0","W1920,H1040","1920 x 1080","true","","14","4","7","10","0","44"
"900","img/Floppy.png","40","image-keyboard-response","340","330697","0.0-33.0-0.5","Mozilla/5.0 (Windows NT 10.0; Win64; x64; rv:89.0) Gecko/20100101 Firefox/89.0","W1920,H1040","1920 x 1080","true","","14","5","6","10","0","44"
"516","img/Basket.png","40","image-keyboard-response","341","331218","0.0-33.0-0.6","Mozilla/5.0 (Windows NT 10.0; Win64; x64; rv:89.0) Gecko/20100101 Firefox/89.0","W1920,H1040","1920 x 1080","true","","14","6","8","10","0","44"
"741","img/Soapdispenser.png","40","image-keyboard-response","342","331962","0.0-33.0-0.7","Mozilla/5.0 (Windows NT 10.0; Win64; x64; rv:89.0) Gecko/20100101 Firefox/89.0","W1920,H1040","1920 x 1080","true","","14","7","7","10","0","44"
"573","img/Floppy.png","40","image-keyboard-response","343","332537","0.0-33.0-0.8","Mozilla/5.0 (Windows NT 10.0; Win64; x64; rv:89.0) Gecko/20100101 Firefox/89.0","W1920,H1040","1920 x 1080","true","","14","8","6","10","0","44"
"555","img/Basket.png","40","image-keyboard-response","344","333096","0.0-33.0-0.9","Mozilla/5.0 (Windows NT 10.0; Win64; x64; rv:89.0) Gecko/20100101 Firefox/89.0","W1920,H1040","1920 x 1080","true","","14","9","8","10","0","44"
"617","img/Floppy.png","40","image-keyboard-response","345","333714","0.0-33.0-0.10","Mozilla/5.0 (Windows NT 10.0; Win64; x64; rv:89.0) Gecko/20100101 Firefox/89.0","W1920,H1040","1920 x 1080","true","","14","10","6","10","0","44"
"651","img/Toiletpaper.png","40","image-keyboard-response","346","334369","0.0-33.0-0.11","Mozilla/5.0 (Windows NT 10.0; Win64; x64; rv:89.0) Gecko/20100101 Firefox/89.0","W1920,H1040","1920 x 1080","true","","14","11","5","10","0","44"
"701","img/Soapdispenser.png","40","image-keyboard-response","347","335082","0.0-33.0-0.12","Mozilla/5.0 (Windows NT 10.0; Win64; x64; rv:89.0) Gecko/20100101 Firefox/89.0","W1920,H1040","1920 x 1080","true","","14","12","7","10","0","44"
"550","img/Basket.png","40","image-keyboard-response","348","335641","0.0-33.0-0.13","Mozilla/5.0 (Windows NT 10.0; Win64; x64; rv:89.0) Gecko/20100101 Firefox/89.0","W1920,H1040","1920 x 1080","true","","14","13","8","10","0","44"
"587","img/Toiletpaper.png","40","image-keyboard-response","349","336234","0.0-33.0-0.14","Mozilla/5.0 (Windows NT 10.0; Win64; x64; rv:89.0) Gecko/20100101 Firefox/89.0","W1920,H1040","1920 x 1080","true","","14","14","5","10","0","44"
"620","img/Soapdispenser.png","40","image-keyboard-response","350","336857","0.0-33.0-0.15","Mozilla/5.0 (Windows NT 10.0; Win64; x64; rv:89.0) Gecko/20100101 Firefox/89.0","W1920,H1040","1920 x 1080","true","","14","15","7","10","0","44"
"595","img/Floppy.png","40","image-keyboard-response","351","337456","0.0-33.0-0.16","Mozilla/5.0 (Windows NT 10.0; Win64; x64; rv:89.0) Gecko/20100101 Firefox/89.0","W1920,H1040","1920 x 1080","true","","14","16","6","10","0","44"
"632","img/Soapdispenser.png","40","image-keyboard-response","352","338089","0.0-33.0-0.17","Mozilla/5.0 (Windows NT 10.0; Win64; x64; rv:89.0) Gecko/20100101 Firefox/89.0","W1920,H1040","1920 x 1080","true","","14","17","7","10","0","44"
"748","img/Basket.png","40","image-keyboard-response","353","338842","0.0-33.0-0.18","Mozilla/5.0 (Windows NT 10.0; Win64; x64; rv:89.0) Gecko/20100101 Firefox/89.0","W1920,H1040","1920 x 1080","true","","14","18","8","10","0","44"
"788","img/Balloon.png","40","image-keyboard-response","354","339634","0.0-33.0-0.19","Mozilla/5.0 (Windows NT 10.0; Win64; x64; rv:89.0) Gecko/20100101 Firefox/89.0","W1920,H1040","1920 x 1080","true","","14","19","9","10","0","44"
"668","img/Basket.png","40","image-keyboard-response","355","340306","0.0-33.0-0.20","Mozilla/5.0 (Windows NT 10.0; Win64; x64; rv:89.0) Gecko/20100101 Firefox/89.0","W1920,H1040","1920 x 1080","true","","14","20","8","10","0","44"
"1236","img/Soapdispenser.png","40","image-keyboard-response","356","341546","0.0-33.0-0.21","Mozilla/5.0 (Windows NT 10.0; Win64; x64; rv:89.0) Gecko/20100101 Firefox/89.0","W1920,H1040","1920 x 1080","true","","14","21","7","10","0","44"
"494","img/Floppy.png","40","image-keyboard-response","357","342042","0.0-33.0-0.22","Mozilla/5.0 (Windows NT 10.0; Win64; x64; rv:89.0) Gecko/20100101 Firefox/89.0","W1920,H1040","1920 x 1080","true","","14","22","6","10","0","44"
"628","img/Balloon.png","40","image-keyboard-response","358","342673","0.0-33.0-0.23","Mozilla/5.0 (Windows NT 10.0; Win64; x64; rv:89.0) Gecko/20100101 Firefox/89.0","W1920,H1040","1920 x 1080","true","","14","23","9","10","0","44"
"629","img/Basket.png","40","image-keyboard-response","359","343305","0.0-33.0-0.24","Mozilla/5.0 (Windows NT 10.0; Win64; x64; rv:89.0) Gecko/20100101 Firefox/89.0","W1920,H1040","1920 x 1080","true","","14","24","8","10","0","44"
"1501","img/Toiletpaper.png","40","image-keyboard-response","360","344810","0.0-33.0-0.25","Mozilla/5.0 (Windows NT 10.0; Win64; x64; rv:89.0) Gecko/20100101 Firefox/89.0","W1920,H1040","1920 x 1080","true","","14","25","5","10","0","44"
"627","img/Lightbulb.png","39","image-keyboard-response","361","345449","0.0-33.0-0.26","Mozilla/5.0 (Windows NT 10.0; Win64; x64; rv:89.0) Gecko/20100101 Firefox/89.0","W1920,H1040","1920 x 1080","true","","14","26","4","10","1","43"
"796","img/Toiletpaper.png","37","image-keyboard-response","362","346258","0.0-33.0-0.27","Mozilla/5.0 (Windows NT 10.0; Win64; x64; rv:89.0) Gecko/20100101 Firefox/89.0","W1920,H1040","1920 x 1080","true","","14","27","5","10","-1","43"
"803","img/Soapdispenser.png","40","image-keyboard-response","363","347066","0.0-33.0-0.28","Mozilla/5.0 (Windows NT 10.0; Win64; x64; rv:89.0) Gecko/20100101 Firefox/89.0","W1920,H1040","1920 x 1080","true","","14","28","7","10","0","43"
"685","img/Toiletpaper.png","40","image-keyboard-response","364","347754","0.0-33.0-0.29","Mozilla/5.0 (Windows NT 10.0; Win64; x64; rv:89.0) Gecko/20100101 Firefox/89.0","W1920,H1040","1920 x 1080","true","","14","29","5","10","0","43"
"653","img/Floppy.png","40","image-keyboard-response","365","348410","0.0-33.0-0.30","Mozilla/5.0 (Windows NT 10.0; Win64; x64; rv:89.0) Gecko/20100101 Firefox/89.0","W1920,H1040","1920 x 1080","true","","14","30","6","10","0","43"
"1150","img/Balloon.png","39","image-keyboard-response","366","349562","0.0-33.0-0.31","Mozilla/5.0 (Windows NT 10.0; Win64; x64; rv:89.0) Gecko/20100101 Firefox/89.0","W1920,H1040","1920 x 1080","true","","14","31","9","10","1","42"
"1149","img/Basket.png","37","image-keyboard-response","367","350714","0.0-33.0-0.32","Mozilla/5.0 (Windows NT 10.0; Win64; x64; rv:89.0) Gecko/20100101 Firefox/89.0","W1920,H1040","1920 x 1080","true","","14","32","8","10","-1","42"
"780","img/Soapdispenser.png","40","image-keyboard-response","368","351497","0.0-33.0-0.33","Mozilla/5.0 (Windows NT 10.0; Win64; x64; rv:89.0) Gecko/20100101 Firefox/89.0","W1920,H1040","1920 x 1080","true","","14","33","7","10","0","42"
"1172","img/Floppy.png","40","image-keyboard-response","369","352674","0.0-33.0-0.34","Mozilla/5.0 (Windows NT 10.0; Win64; x64; rv:89.0) Gecko/20100101 Firefox/89.0","W1920,H1040","1920 x 1080","true","","14","34","6","10","0","42"
"522","img/Soapdispenser.png","40","image-keyboard-response","370","353202","0.0-33.0-0.35","Mozilla/5.0 (Windows NT 10.0; Win64; x64; rv:89.0) Gecko/20100101 Firefox/89.0","W1920,H1040","1920 x 1080","true","","14","35","7","10","0","42"
"932","img/Basket.png","40","image-keyboard-response","371","354138","0.0-33.0-0.36","Mozilla/5.0 (Windows NT 10.0; Win64; x64; rv:89.0) Gecko/20100101 Firefox/89.0","W1920,H1040","1920 x 1080","true","","14","36","8","10","0","42"
"676","img/Soapdispenser.png","40","image-keyboard-response","372","354818","0.0-33.0-0.37","Mozilla/5.0 (Windows NT 10.0; Win64; x64; rv:89.0) Gecko/20100101 Firefox/89.0","W1920,H1040","1920 x 1080","true","","14","37","7","10","0","42"
"773","img/Toiletpaper.png","40","image-keyboard-response","373","355602","0.0-33.0-0.38","Mozilla/5.0 (Windows NT 10.0; Win64; x64; rv:89.0) Gecko/20100101 Firefox/89.0","W1920,H1040","1920 x 1080","true","","14","38","5","10","0","42"
"497","img/Soapdispenser.png","40","image-keyboard-response","374","356114","0.0-33.0-0.39","Mozilla/5.0 (Windows NT 10.0; Win64; x64; rv:89.0) Gecko/20100101 Firefox/89.0","W1920,H1040","1920 x 1080","true","","14","39","7","10","0","42"
"708","img/Basket.png","40","image-keyboard-response","375","356826","0.0-33.0-0.40","Mozilla/5.0 (Windows NT 10.0; Win64; x64; rv:89.0) Gecko/20100101 Firefox/89.0","W1920,H1040","1920 x 1080","true","","14","40","8","10","0","42"
"500","img/Soapdispenser.png","40","image-keyboard-response","376","357329","0.0-33.0-0.41","Mozilla/5.0 (Windows NT 10.0; Win64; x64; rv:89.0) Gecko/20100101 Firefox/89.0","W1920,H1040","1920 x 1080","true","","14","41","7","10","0","42"
"613","img/Balloon.png","40","image-keyboard-response","377","357946","0.0-33.0-0.42","Mozilla/5.0 (Windows NT 10.0; Win64; x64; rv:89.0) Gecko/20100101 Firefox/89.0","W1920,H1040","1920 x 1080","true","","14","42","9","10","0","42"
"null","img/Jar.png","null","image-keyboard-response","378","357952","0.0-33.0-0.43","Mozilla/5.0 (Windows NT 10.0; Win64; x64; rv:89.0) Gecko/20100101 Firefox/89.0","W1920,H1040","1920 x 1080","true","","14","43","10","10","0","42"
"4633","img/Jar.png","38","image-keyboard-response","379","362586","0.0-34.0-0.0","Mozilla/5.0 (Windows NT 10.0; Win64; x64; rv:89.0) Gecko/20100101 Firefox/89.0","W1920,H1040","1920 x 1080","true","","","","","","",""
"2036","img/Jar.png","40","image-keyboard-response","380","364626","0.0-35.0-0.0","Mozilla/5.0 (Windows NT 10.0; Win64; x64; rv:89.0) Gecko/20100101 Firefox/89.0","W1920,H1040","1920 x 1080","true","","15","0","10","5","0","42"
"740","img/Clipboard.png","40","image-keyboard-response","381","365370","0.0-35.0-0.1","Mozilla/5.0 (Windows NT 10.0; Win64; x64; rv:89.0) Gecko/20100101 Firefox/89.0","W1920,H1040","1920 x 1080","true","","15","1","12","5","0","42"
"473","img/Jar.png","40","image-keyboard-response","382","365849","0.0-35.0-0.2","Mozilla/5.0 (Windows NT 10.0; Win64; x64; rv:89.0) Gecko/20100101 Firefox/89.0","W1920,H1040","1920 x 1080","true","","15","2","10","5","0","42"
"534","img/Mug.png","40","image-keyboard-response","383","366402","0.0-35.0-0.3","Mozilla/5.0 (Windows NT 10.0; Win64; x64; rv:89.0) Gecko/20100101 Firefox/89.0","W1920,H1040","1920 x 1080","true","","15","3","13","5","0","42"
"667","img/Clipboard.png","40","image-keyboard-response","384","367082","0.0-35.0-0.4","Mozilla/5.0 (Windows NT 10.0; Win64; x64; rv:89.0) Gecko/20100101 Firefox/89.0","W1920,H1040","1920 x 1080","true","","15","4","12","5","0","42"
"532","img/Book.png","40","image-keyboard-response","385","367618","0.0-35.0-0.5","Mozilla/5.0 (Windows NT 10.0; Win64; x64; rv:89.0) Gecko/20100101 Firefox/89.0","W1920,H1040","1920 x 1080","true","","15","5","14","5","0","42"
"684","img/Clipboard.png","40","image-keyboard-response","386","368306","0.0-35.0-0.6","Mozilla/5.0 (Windows NT 10.0; Win64; x64; rv:89.0) Gecko/20100101 Firefox/89.0","W1920,H1040","1920 x 1080","true","","15","6","12","5","0","42"
"893","img/Mug.png","40","image-keyboard-response","387","369202","0.0-35.0-0.7","Mozilla/5.0 (Windows NT 10.0; Win64; x64; rv:89.0) Gecko/20100101 Firefox/89.0","W1920,H1040","1920 x 1080","true","","15","7","13","5","0","42"
"1484","img/Book.png","40","image-keyboard-response","388","370690","0.0-35.0-0.8","Mozilla/5.0 (Windows NT 10.0; Win64; x64; rv:89.0) Gecko/20100101 Firefox/89.0","W1920,H1040","1920 x 1080","true","","15","8","14","5","0","42"
"1381","img/Clipboard.png","40","image-keyboard-response","389","372074","0.0-35.0-0.9","Mozilla/5.0 (Windows NT 10.0; Win64; x64; rv:89.0) Gecko/20100101 Firefox/89.0","W1920,H1040","1920 x 1080","true","","15","9","12","5","0","42"
"652","img/Jar.png","40","image-keyboard-response","390","372729","0.0-35.0-0.10","Mozilla/5.0 (Windows NT 10.0; Win64; x64; rv:89.0) Gecko/20100101 Firefox/89.0","W1920,H1040","1920 x 1080","true","","15","10","10","5","0","42"
"617","img/Mug.png","40","image-keyboard-response","391","373353","0.0-35.0-0.11","Mozilla/5.0 (Windows NT 10.0; Win64; x64; rv:89.0) Gecko/20100101 Firefox/89.0","W1920,H1040","1920 x 1080","true","","15","11","13","5","0","42"
"471","img/Book.png","40","image-keyboard-response","392","373825","0.0-35.0-0.12","Mozilla/5.0 (Windows NT 10.0; Win64; x64; rv:89.0) Gecko/20100101 Firefox/89.0","W1920,H1040","1920 x 1080","true","","15","12","14","5","0","42"
"1107","img/Cap.png","39","image-keyboard-response","393","374962","0.0-35.0-0.13","Mozilla/5.0 (Windows NT 10.0; Win64; x64; rv:89.0) Gecko/20100101 Firefox/89.0","W1920,H1040","1920 x 1080","true","","15","13","0","5","1","41"
"620","img/Ovenmitt.png","39","image-keyboard-response","394","375610","0.0-35.0-0.14","Mozilla/5.0 (Windows NT 10.0; Win64; x64; rv:89.0) Gecko/20100101 Firefox/89.0","W1920,H1040","1920 x 1080","true","","15","14","1","5","1","39"
"572","img/Lightbulb.png","39","image-keyboard-response","395","376186","0.0-35.0-0.15","Mozilla/5.0 (Windows NT 10.0; Win64; x64; rv:89.0) Gecko/20100101 Firefox/89.0","W1920,H1040","1920 x 1080","true","","15","15","4","5","1","36"
"null","img/Toiletpaper.png","null","image-keyboard-response","396","376217","0.0-35.0-0.16","Mozilla/5.0 (Windows NT 10.0; Win64; x64; rv:89.0) Gecko/20100101 Firefox/89.0","W1920,H1040","1920 x 1080","true","","15","16","5","5","0","51"
"1656","img/Toiletpaper.png","38","image-keyboard-response","397","377873","0.0-36.0-0.0","Mozilla/5.0 (Windows NT 10.0; Win64; x64; rv:89.0) Gecko/20100101 Firefox/89.0","W1920,H1040","1920 x 1080","true","","","","","","",""
"621","img/Toiletpaper.png","40","image-keyboard-response","398","378514","0.0-37.0-0.0","Mozilla/5.0 (Windows NT 10.0; Win64; x64; rv:89.0) Gecko/20100101 Firefox/89.0","W1920,H1040","1920 x 1080","true","","16","0","5","0","0","51"
"612","img/Floppy.png","40","image-keyboard-response","399","379129","0.0-37.0-0.1","Mozilla/5.0 (Windows NT 10.0; Win64; x64; rv:89.0) Gecko/20100101 Firefox/89.0","W1920,H1040","1920 x 1080","true","","16","1","6","0","0","51"
"533","img/Toiletpaper.png","40","image-keyboard-response","400","379666","0.0-37.0-0.2","Mozilla/5.0 (Windows NT 10.0; Win64; x64; rv:89.0) Gecko/20100101 Firefox/89.0","W1920,H1040","1920 x 1080","true","","16","2","5","0","0","51"
"485","img/Floppy.png","40","image-keyboard-response","401","380153","0.0-37.0-0.3","Mozilla/5.0 (Windows NT 10.0; Win64; x64; rv:89.0) Gecko/20100101 Firefox/89.0","W1920,H1040","1920 x 1080","true","","16","3","6","0","0","51"
"532","img/Toiletpaper.png","40","image-keyboard-response","402","380690","0.0-37.0-0.4","Mozilla/5.0 (Windows NT 10.0; Win64; x64; rv:89.0) Gecko/20100101 Firefox/89.0","W1920,H1040","1920 x 1080","true","","16","4","5","0","0","51"
"516","img/Basket.png","40","image-keyboard-response","403","381209","0.0-37.0-0.5","Mozilla/5.0 (Windows NT 10.0; Win64; x64; rv:89.0) Gecko/20100101 Firefox/89.0","W1920,H1040","1920 x 1080","true","","16","5","8","0","0","51"
"580","img/Balloon.png","40","image-keyboard-response","404","381794","0.0-37.0-0.6","Mozilla/5.0 (Windows NT 10.0; Win64; x64; rv:89.0) Gecko/20100101 Firefox/89.0","W1920,H1040","1920 x 1080","true","","16","6","9","0","0","51"
"547","img/Soapdispenser.png","40","image-keyboard-response","405","382346","0.0-37.0-0.7","Mozilla/5.0 (Windows NT 10.0; Win64; x64; rv:89.0) Gecko/20100101 Firefox/89.0","W1920,H1040","1920 x 1080","true","","16","7","7","0","0","51"
"1157","img/Basket.png","40","image-keyboard-response","406","383506","0.0-37.0-0.8","Mozilla/5.0 (Windows NT 10.0; Win64; x64; rv:89.0) Gecko/20100101 Firefox/89.0","W1920,H1040","1920 x 1080","true","","16","8","8","0","0","51"
"685","img/Floppy.png","39","image-keyboard-response","407","384194","0.0-37.0-0.9","Mozilla/5.0 (Windows NT 10.0; Win64; x64; rv:89.0) Gecko/20100101 Firefox/89.0","W1920,H1040","1920 x 1080","true","","16","9","6","0","1","50"
"757","img/Soapdispenser.png","39","image-keyboard-response","408","384954","0.0-37.0-0.10","Mozilla/5.0 (Windows NT 10.0; Win64; x64; rv:89.0) Gecko/20100101 Firefox/89.0","W1920,H1040","1920 x 1080","true","","16","10","7","0","1","48"
"980","img/Balloon.png","37","image-keyboard-response","409","385938","0.0-37.0-0.11","Mozilla/5.0 (Windows NT 10.0; Win64; x64; rv:89.0) Gecko/20100101 Firefox/89.0","W1920,H1040","1920 x 1080","true","","16","11","9","0","-1","47"
"541","img/Basket.png","37","image-keyboard-response","410","386482","0.0-37.0-0.12","Mozilla/5.0 (Windows NT 10.0; Win64; x64; rv:89.0) Gecko/20100101 Firefox/89.0","W1920,H1040","1920 x 1080","true","","16","12","8","0","-1","47"
"515","img/Balloon.png","40","image-keyboard-response","411","387010","0.0-37.0-0.13","Mozilla/5.0 (Windows NT 10.0; Win64; x64; rv:89.0) Gecko/20100101 Firefox/89.0","W1920,H1040","1920 x 1080","true","","16","13","9","0","0","47"
"722","img/Jar.png","40","image-keyboard-response","412","387738","0.0-37.0-0.14","Mozilla/5.0 (Windows NT 10.0; Win64; x64; rv:89.0) Gecko/20100101 Firefox/89.0","W1920,H1040","1920 x 1080","true","","16","14","10","0","0","47"
"621","img/Clipboard.png","40","image-keyboard-response","413","388362","0.0-37.0-0.15","Mozilla/5.0 (Windows NT 10.0; Win64; x64; rv:89.0) Gecko/20100101 Firefox/89.0","W1920,H1040","1920 x 1080","true","","16","15","12","0","0","47"
"555","img/Toaster.png","40","image-keyboard-response","414","388922","0.0-37.0-0.16","Mozilla/5.0 (Windows NT 10.0; Win64; x64; rv:89.0) Gecko/20100101 Firefox/89.0","W1920,H1040","1920 x 1080","true","","16","16","11","0","0","47"
"554","img/Mug.png","40","image-keyboard-response","415","389481","0.0-37.0-0.17","Mozilla/5.0 (Windows NT 10.0; Win64; x64; rv:89.0) Gecko/20100101 Firefox/89.0","W1920,H1040","1920 x 1080","true","","16","17","13","0","0","47"
"578","img/Book.png","40","image-keyboard-response","416","390065","0.0-37.0-0.18","Mozilla/5.0 (Windows NT 10.0; Win64; x64; rv:89.0) Gecko/20100101 Firefox/89.0","W1920,H1040","1920 x 1080","true","","16","18","14","0","0","47"
"null","img/Cap.png","null","image-keyboard-response","417","390088","0.0-37.0-0.19","Mozilla/5.0 (Windows NT 10.0; Win64; x64; rv:89.0) Gecko/20100101 Firefox/89.0","W1920,H1040","1920 x 1080","true","","16","19","0","0","0","47"
"3953","img/Cap.png","38","image-keyboard-response","418","394042","0.0-38.0-0.0","Mozilla/5.0 (Windows NT 10.0; Win64; x64; rv:89.0) Gecko/20100101 Firefox/89.0","W1920,H1040","1920 x 1080","true","","","","","","",""
"1211","img/Cap.png","40","image-keyboard-response","419","395257","0.0-39.0-0.0","Mozilla/5.0 (Windows NT 10.0; Win64; x64; rv:89.0) Gecko/20100101 Firefox/89.0","W1920,H1040","1920 x 1080","true","","17","0","0","8","0","47"
"910","img/Ovenmitt.png","40","image-keyboard-response","420","396170","0.0-39.0-0.1","Mozilla/5.0 (Windows NT 10.0; Win64; x64; rv:89.0) Gecko/20100101 Firefox/89.0","W1920,H1040","1920 x 1080","true","","17","1","1","8","0","47"
"771","img/Fryingpan.png","40","image-keyboard-response","421","396969","0.0-39.0-0.2","Mozilla/5.0 (Windows NT 10.0; Win64; x64; rv:89.0) Gecko/20100101 Firefox/89.0","W1920,H1040","1920 x 1080","true","","17","2","2","8","0","47"
"697","img/Lightbulb.png","40","image-keyboard-response","422","397682","0.0-39.0-0.3","Mozilla/5.0 (Windows NT 10.0; Win64; x64; rv:89.0) Gecko/20100101 Firefox/89.0","W1920,H1040","1920 x 1080","true","","17","3","4","8","0","47"
"588","img/Toiletpaper.png","40","image-keyboard-response","423","398274","0.0-39.0-0.4","Mozilla/5.0 (Windows NT 10.0; Win64; x64; rv:89.0) Gecko/20100101 Firefox/89.0","W1920,H1040","1920 x 1080","true","","17","4","5","8","0","47"
"null","img/Basket.png","null","image-keyboard-response","424","398286","0.0-39.0-0.5","Mozilla/5.0 (Windows NT 10.0; Win64; x64; rv:89.0) Gecko/20100101 Firefox/89.0","W1920,H1040","1920 x 1080","true","","17","5","8","8","0","47"
"1642","img/Basket.png","38","image-keyboard-response","425","399931","0.0-40.0-0.0","Mozilla/5.0 (Windows NT 10.0; Win64; x64; rv:89.0) Gecko/20100101 Firefox/89.0","W1920,H1040","1920 x 1080","true","","","","","","",""
"318","img/Basket.png","40","image-keyboard-response","426","400258","0.0-41.0-0.0","Mozilla/5.0 (Windows NT 10.0; Win64; x64; rv:89.0) Gecko/20100101 Firefox/89.0","W1920,H1040","1920 x 1080","true","","18","0","8","11","0","47"
"1028","img/Soapdispenser.png","40","image-keyboard-response","427","401298","0.0-41.0-0.1","Mozilla/5.0 (Windows NT 10.0; Win64; x64; rv:89.0) Gecko/20100101 Firefox/89.0","W1920,H1040","1920 x 1080","true","","18","1","7","11","0","47"
